time,seconds_elapsed,z,y,x
1683645427694450700,0.03445068359375,0.002211246308684349,-0.11621785697788,-0.7953066936526447
1683645427704458800,0.044458740234375,0.1396130533516407,0.030407413223385808,-0.7895920423328876
1683645427714465500,0.054465576171875,0.12879472221732138,0.08122925344407558,-0.5520603204123675
1683645427724472800,0.064472900390625,0.030665187376737593,0.10111176552176475,-0.3670864687249064
1683645427734480600,0.074480712890625,0.06675473788976669,0.1966547910004854,-0.3194838828116655
1683645427744487700,0.08448779296875,0.22998364462852477,0.33496728314757346,-0.27469840014576913
1683645427754494700,0.09449462890625,0.4676292021870613,0.38681612832844253,-0.13831585314795375
1683645427764501500,0.10450146484375,0.7165916880518197,0.31278496969491243,0.08847206417918205
1683645427774509600,0.114509521484375,0.7533247971653938,0.1992301944464445,0.2713167948834598
1683645427784516600,0.1245166015625,0.52809506906569,0.23361878626048563,0.3453755721762776
1683645427794523600,0.134523681640625,0.5149322206318379,0.3057873658925295,0.24535043284744024
1683645427804531500,0.144531494140625,0.7420762579202651,0.26845015340596434,0.13651698703244328
1683645427814538800,0.154538818359375,0.9073381317913531,0.17159224593639372,0.19148454875573515
1683645427824545500,0.164545654296875,0.9794400759279728,0.07884644996076821,0.3461417342431843
1683645427834552800,0.174552734375,0.9219389040738344,0.038186230531334873,0.4372556912332773
1683645427844560600,0.184560546875,0.7504881124347448,0.11563187378346919,0.38240035771280523
1683645427854567700,0.194567626953125,0.6884019508779049,0.27850948286652566,0.2581555538848042
1683645427864574700,0.20457470703125,0.684043171146512,0.35952772390842436,0.15501578966677187
1683645427874582800,0.214582763671875,0.704606651225686,0.3181909203916788,0.0954582698047161
1683645427884589600,0.224589599609375,0.6927934638351202,0.1990647747516632,0.04898088852912187
1683645427894596600,0.2345966796875,0.658764937505126,0.05061316590607166,-0.10005443848855793
1683645427904603600,0.244603759765625,0.3263075913518667,-0.11629004543125629,-0.2159083575248718
1683645427914611500,0.254611572265625,-0.13501111251413822,-0.2526514035105705,-0.2580959326520562
1683645427924618800,0.26461865234375,-0.1514507906615734,-0.3204199946179986,-0.34117607465982436
1683645427934625500,0.27462548828125,0.28494682243764397,-0.26635990312844515,-0.36269765918143093
1683645427944633600,0.284633544921875,0.8056511967301369,-0.22469021439552306,-0.10025427190959453
1683645427954640600,0.294640625,1.1302876399993895,-0.23987083239257334,0.31680268090367314
1683645427964647700,0.304647705078125,1.3567559699833391,-0.28016367981433865,0.7641609562173486
1683645427974655700,0.31465576171875,1.4454513215243816,-0.2521910925224423,1.1613470873907208
1683645427984662800,0.324662841796875,1.3310755852818488,-0.1771358515381813,1.4779101143196225
1683645427994669600,0.334669677734375,1.0570306806087493,-0.06837269448041916,1.6044073732495308
1683645428004676600,0.344676513671875,0.808894124174118,0.008538695764541625,1.5745441499054431
1683645428014684700,0.3546845703125,0.6503051521956921,-0.0584060117393732,1.4525808811433611
1683645428024691500,0.36469140625,0.4839759413540363,-0.24011107088923453,1.2868854381605983
1683645428034698800,0.37469873046875,0.2718921105533838,-0.4283186438009143,1.1017845990926027
1683645428044706600,0.38470654296875,0.006961655706167221,-0.5182508436605334,0.9493462586984038
1683645428054713600,0.394713623046875,-0.273081612598896,-0.5674956438228488,0.7966596426315605
1683645428064720600,0.404720703125,-0.42271746279299255,-0.6640440469518304,0.6448792546894401
1683645428074727700,0.414727783203125,-0.4711719893604517,-0.6379007209137082,0.6005572978820651
1683645428084735700,0.42473583984375,-0.8486994803398847,-0.49041854162216186,0.8656332256145775
1683645428094742800,0.43474267578125,-1.2090659931600094,-0.43478842433691023,1.03574034755975
1683645428104749600,0.44474951171875,-1.227767186498642,-0.3981751422107219,0.8866833201669156
1683645428114758000,0.4547578125,-1.0227923109203576,-0.31513971612751485,0.8222025916237383
1683645428124764700,0.4647646484375,-0.9300456381618976,-0.2891156325548887,0.8992444033153355
1683645428134771000,0.47477099609375,-0.9846423207461833,-0.3233089940577745,0.9797982417158781
1683645428144778000,0.484778076171875,-1.0549404303312302,-0.32692893812060353,0.9273426628135144
1683645428154785800,0.494785888671875,-1.0377946497410535,-0.33861996043622494,0.7870814477514475
1683645428164793000,0.50479296875,-1.0327665924459695,-0.3967056541800499,0.6119092244364321
1683645428174800000,0.5147998046875,-1.0443196675956248,-0.44573593480885026,0.5251024631209671
1683645428184808000,0.524807861328125,-1.0393091459572315,-0.4243357116445899,0.5328931169971823
1683645428194815000,0.53481494140625,-0.8527923026114702,-0.34298516990840433,0.520704447357729
1683645428204821800,0.54482177734375,-0.56183308801651,-0.3137166975870728,0.509270687738806
1683645428214829000,0.5548291015625,-0.2686655497223139,-0.36301994993835685,0.6318874519735574
1683645428224836900,0.5648369140625,-0.14126023603677748,-0.4183209813997149,0.8800266387566924
1683645428234844000,0.574843994140625,-0.14700374812483788,-0.4195028846606612,1.109793571894616
1683645428244851000,0.584850830078125,-0.2844499788314104,-0.3989660003274679,1.2253270998701453
1683645428254859000,0.59485888671875,-0.19028467144668101,-0.6992027463555336,0.8062285582266747
1683645428264865800,0.60486572265625,-0.790040955144167,-0.6271458104044199,1.0228178106877952
1683645428274873000,0.614873046875,-1.1417407619059086,-0.5725643253892659,1.3394937234066426
1683645428284880000,0.6248798828125,-1.3461170870691537,-0.720942284476757,1.0850851009652018
1683645428294888000,0.634887939453125,-1.1194184554606676,-0.9630877838030457,0.4055886333376169
1683645428304895000,0.64489501953125,-0.797418790435791,-0.9648822660043835,-0.04669635778851807
1683645428314901800,0.65490185546875,-0.702607586362958,-0.8064765416383742,-0.1745940581008792
1683645428324909800,0.664909912109375,-0.8875491432160139,-0.6148287651449441,0.044979982324689624
1683645428334916900,0.674916748046875,-1.119855677834153,-0.4841857847124338,0.28225086135193705
1683645428344924000,0.684923828125,-1.2787415869325398,-0.5093111658796667,0.41227161823287606
1683645428354931000,0.694930908203125,-1.1773153486341237,-0.5887181723326445,0.42181817586570974
1683645428364939000,0.70493896484375,-0.930643604055047,-0.6854974616080522,0.34741043900474905
1683645428374945800,0.71494580078125,-0.6373948172181845,-0.6101695411622524,0.09083470165729522
1683645428384953000,0.724953125,-0.6566250028669833,-0.6375619904786348,0.1079413192808628
1683645428394961000,0.7349609375,-0.8991630086421966,-0.7777250789284705,0.330690774872154
1683645428404968000,0.744968017578125,-0.8301222056418657,-0.6926134310930967,0.49929260682091114
1683645428414975000,0.75497509765625,-0.741446143323183,-0.5739961117580533,0.7258899700120091
1683645428424981800,0.764981689453125,-0.6484323440611363,-0.3311304814636707,1.04036084696725
1683645428434989800,0.77498974609375,-0.49108548109829425,-0.29171704722493885,1.3270900227770208
1683645428444996900,0.784996826171875,-0.4230161534786224,-0.5533271254777908,1.4241361462950706
1683645428455004000,0.79500390625,-0.42535190294981,-0.8341904779940843,1.3605103540807961
1683645428465011700,0.80501171875,-0.5747603741288185,-1.0631792663663626,1.2862450944304467
1683645428475019000,0.81501904296875,-0.8334732696354389,-1.325073714518547,1.1972595277711748
1683645428485025800,0.82502587890625,-1.086360235467553,-1.4670219328194856,0.9546285099502653
1683645428495033900,0.835033935546875,-1.0837784022808075,-1.0169172814071177,0.3571538343839347
1683645428505041000,0.845041015625,-1.2034686115443707,-0.5421802930414676,-0.2757259896278381
1683645428515048000,0.8550478515625,-1.5406816277921198,-0.19696751021146774,-0.4730636483259499
1683645428525055000,0.865054931640625,-1.6820932549983263,0.10113689996302128,-0.26825163515917955
1683645428535063000,0.87506298828125,-1.8508347876787186,0.15577859073281286,-0.17122940397337078
1683645428545069800,0.88506982421875,-1.7958102350711822,0.273355753365159,-0.37804274702519175
1683645428555076900,0.895076904296875,-1.697979975438118,0.3749859898030758,-0.5168149656385183
1683645428565085000,0.9050849609375,-1.4042472044765948,0.37480654158294197,-0.6890127762526274
1683645428575091700,0.915091796875,-0.9935229618161916,0.2953115645855665,-0.8122463572114705
1683645428585099000,0.92509912109375,-0.609286328586936,0.13348492586016655,-0.9364470296368003
1683645428595105800,0.935105712890625,-0.2801426370263099,0.13021978658437727,-0.7352116328477859
1683645428605113900,0.94511376953125,-0.27179332635402675,0.010585106900334358,-0.481880466912128
1683645428615121000,0.955120849609375,-0.27605332188606263,-0.05092003989815712,-0.5589055101320147
1683645428625128000,0.9651279296875,-0.37908933346867557,0.013775427374243735,-0.623971272021532
1683645428635136000,0.975135986328125,-0.648982963681221,0.09575520692467689,-0.6235428174763917
1683645428645143000,0.98514306640625,-0.6728431472182274,0.23428806382417677,-0.7741738161876798
1683645428655149800,0.99514990234375,-0.4828296939283609,0.37678573270142074,-1.1787629170939327
1683645428665156900,1.005156982421875,-0.6381973657727241,0.10791676936149597,-1.0306783879950643
1683645428675165000,1.0151650390625,-0.4699819027930498,-0.17666180428564549,-0.8453875793129205
1683645428685172000,1.025171875,-0.13689268847703934,-0.28532383905649183,-0.8850751543179154
1683645428695179000,1.035178955078125,0.05981061784029006,-0.2770347341388464,-0.9285732275217771
1683645428705186800,1.045186767578125,0.05813771619200706,-0.16063713667988777,-0.8618696352973579
1683645428715194000,1.055194091796875,-0.0474918190151453,-0.05110650238096714,-0.7179407645732164
1683645428725201000,1.065200927734375,-0.1449585060328245,-0.03841828572154045,-0.6767372320473194
1683645428735208000,1.0752080078125,-0.26790976291894913,0.11073182678222655,-0.8211939260378479
1683645428745216000,1.085216064453125,-0.47362990390658377,0.3142746237307787,-1.0696449552491307
1683645428755223000,1.09522314453125,-0.7362023974508046,0.4683937568187713,-1.353768770866096
1683645428765229800,1.105229736328125,-1.0993518189877272,0.6610702918380499,-1.5990528604790568
1683645428775238100,1.115238037109375,-1.521827874240279,0.8795505456775427,-1.6804247372642158
1683645428785245000,1.125244873046875,-1.8178443722248077,1.132647939389944,-1.5762962542697787
1683645428795252000,1.135251953125,-1.982906339609623,1.404578628388047,-1.2689400316253303
1683645428805259000,1.145259033203125,-1.6866577864348888,1.3729384584993123,-1.1645642958715556
1683645428815266800,1.155266845703125,-1.0611737717628478,1.2147019532203673,-1.0037234533131123
1683645428825274000,1.165274169921875,-0.41108021649122234,0.8565612997561692,-0.8290645132824778
1683645428835281000,1.175281005859375,0.17068857509493826,0.5774380689054727,-0.9432131627708673
1683645428845289000,1.1852890625,0.6002180559903383,0.5325713376969099,-1.3506263811871408
1683645428855296000,1.1952958984375,0.6407037956357002,0.6480909832775592,-1.6867422498479485
1683645428865302800,1.205302734375,0.2940904983580112,0.9179039494693279,-1.8205499779216945
1683645428875309800,1.215309814453125,-0.09067103552818298,1.2842109582543373,-1.755861963303387
1683645428885318000,1.22531787109375,-0.29643793826699255,1.5303946270555258,-1.4539371180579066
1683645428895325000,1.235324951171875,-0.13525193553268908,1.5394477020829915,-1.1265256571173667
1683645428905332000,1.24533203125,0.30198622004389764,1.3536451444864273,-0.9032628451764583
1683645428915340000,1.255340087890625,0.9333452642291784,1.108033722615242,-0.7721513704493641
1683645428925346800,1.265346923828125,1.9238146836936472,1.0743027179270983,-0.8234419972255825
1683645428935354000,1.27535400390625,2.48469090937674,0.47849312602877614,-0.19010931487977503
1683645428945361000,1.28536083984375,2.4311019425302742,-0.29598668736815453,0.11434095719009638
1683645428955369000,1.295368896484375,2.3654911139786243,-0.20013328076601028,0.3601733283355832
1683645428965376000,1.3053759765625,2.096224091231823,0.17618951059877871,0.679358228200674
1683645428975382800,1.3153828125,1.768394989401102,0.4481166924655437,0.9030933338284491
1683645428985390800,1.325390869140625,1.444493874669075,0.5829331591904163,1.007161757198721
1683645428995398000,1.33539794921875,0.9316951589345931,0.699636461597681,0.872315625987947
1683645429005405000,1.345405029296875,0.4606207847297191,0.6936079950883984,0.3532658870346844
1683645429015412000,1.355411865234375,0.2833306194126606,0.3240565975546837,-0.3389243502102792
1683645429025420000,1.365419921875,0.2382259877949953,-0.1012728013023734,-0.9389480526722968
1683645429035426800,1.3754267578125,0.3437666756749153,-0.43833208829313514,-1.3174144319370389
1683645429045434000,1.38543408203125,0.625664631935954,-0.6031967795401811,-1.3489181159645318
1683645429055442000,1.39544189453125,0.9269885886788368,-0.5878694465488195,-1.1739267291091382
1683645429065449000,1.405448974609375,0.949289852336049,-0.5300643233120441,-1.0391063168615102
1683645429075456000,1.4154560546875,0.928707667556405,-0.3579875087291002,-0.9905300636105239
1683645429085464000,1.425464111328125,0.7768576484441757,-0.15219780963659285,-1.015904304972291
1683645429095470800,1.435470947265625,0.4898170685976743,0.07162935818880796,-1.0649921610072255
1683645429105478000,1.445477783203125,0.31382746448516846,0.3399807273954153,-1.0694042783610522
1683645429115485000,1.45548486328125,0.2559147892206907,0.5618973854243755,-0.9553019522324204
1683645429125492700,1.46549267578125,0.5728314518928528,0.639458179488778,-0.8012357183754444
1683645429135500500,1.47550048828125,1.152055235171318,0.6079331604123115,-0.3869404853604734
1683645429145507600,1.485507568359375,1.6087252364486455,0.3985501130029559,0.1615210799075663
1683645429155515400,1.495515380859375,2.061099586358666,0.39520869362056255,0.3769873927533626
1683645429165522700,1.505522705078125,2.2864035487383605,0.4689665882706642,0.42918271328434343
1683645429175529500,1.515529541015625,2.1347095969706773,0.4563344857126474,0.40587534132450814
1683645429185536500,1.52553662109375,1.7768617889732121,0.4119304035797715,0.25583470972180367
1683645429195544600,1.535544677734375,1.4381705168664454,0.5622784936964511,0.1571945950105786
1683645429205551400,1.54555126953125,1.2924193991512058,0.6835194395333528,0.0759191643372178
1683645429215558700,1.55555859375,1.3476567177265881,0.7250912208497524,-0.007306669751554727
1683645429225566500,1.56556640625,1.4159265363544224,0.7310925070911646,0.19892682758569716
1683645429235573500,1.575573486328125,1.4795383000433444,0.7615525272846222,0.3537875728212297
1683645429245580500,1.58558056640625,1.630753528383374,0.5498609106719493,0.4551764017187059
1683645429255587600,1.595587646484375,1.4839555319637059,0.442353306633234,0.4620065399996936
1683645429265595400,1.605595458984375,1.3669535388708114,0.49446723249107594,0.7287143797829747
1683645429275602700,1.615602783203125,1.3840911361545323,0.1326166185930371,1.3779561405308545
1683645429285609500,1.625609375,1.2031085460603237,-0.2473863225892186,2.108782544031739
1683645429295617300,1.6356171875,0.5576911659061908,-0.042750177446007724,2.0873146624587475
1683645429305624600,1.64562451171875,-0.2844055551677942,0.7338274850130081,1.1502639678403734
1683645429315631400,1.65563134765625,-1.238112054902315,1.0891153793945907,0.5664553409896791
1683645429325638700,1.665638671875,-2.0727672277987,0.9660781977906823,0.1022901616513729
1683645429335646500,1.675646484375,-2.591395964860916,0.8257078963309527,-0.25162827100791035
1683645429345653500,1.685653564453125,-2.3678479062378406,0.6804144592553377,-0.17019903801232575
1683645429355660500,1.69566064453125,-1.35244629009068,0.5369467763021588,0.06919920843243599
1683645429365668600,1.705668701171875,0.04555763608217239,0.8380728723853826,0.23129458109661935
1683645429375675400,1.71567529296875,1.5772838040024042,1.2244663913875817,0.7638812624931335
1683645429385682400,1.725682373046875,2.907009143719077,1.312848439195752,1.3939970286190508
1683645429395689500,1.735689453125,3.8055736019462345,1.3640344365537165,1.1447382632214576
1683645429405697300,1.745697265625,4.228460576087236,1.1958949614197014,0.5816640160374343
1683645429415704600,1.75570458984375,4.119171349328756,0.7823895636081695,-0.12590360388569533
1683645429425711400,1.76571142578125,3.8659716642856594,0.8492822486639022,-0.9499506543323397
1683645429435719400,1.775719482421875,3.3583599958002566,0.7845432345107197,-1.292438834504038
1683645429445726500,1.7857265625,2.600786893540621,0.5276993477463722,-1.4628876094937324
1683645429455733500,1.7957333984375,2.216753673928976,0.3361071008324623,-1.8997554704532027
1683645429465741300,1.8057412109375,1.61002229052186,-0.037058687806129455,-2.3128376744166017
1683645429475748600,1.81574853515625,1.245607379093766,0.7095350475385784,-1.9083919275037944
1683645429485755400,1.82575537109375,0.5523609107941388,0.5584449068829417,-2.106802329999953
1683645429495762400,1.835762451171875,-0.182419929420948,-0.0891366655677557,-2.543580905240774
1683645429505770500,1.8457705078125,-0.612458528882265,0.38713615406304597,-1.6668794653840362
1683645429515777300,1.85577734375,-0.9871914207071065,0.9099290250673889,-1.4925795679241418
1683645429525784600,1.86578466796875,-1.007500633764267,1.0979954359427093,-1.2376629959605634
1683645429535792400,1.87579248046875,-0.6468775158345699,0.7263882749229669,-0.44540641059353947
1683645429545799400,1.88579931640625,-0.6414800407052039,0.41109439114704727,-0.37306262052506206
1683645429555806500,1.895806396484375,-0.7791653408646583,0.28262100983858107,-0.5322422518730163
1683645429565813500,1.9058134765625,-0.4866764324843883,-0.013503624695539474,-0.07563947061300277
1683645429575821300,1.9158212890625,0.5431926849544048,0.14599559399560094,0.7321799370016903
1683645429585828600,1.92582861328125,2.0694360375493766,1.6976175718665123,1.545882995827496
1683645429595835400,1.93583544921875,-0.2877437596797943,0.4424868698850274,0.5557875242419541
1683645429605843500,1.945843505859375,-3.67521820628345,-0.8891771828092634,0.4715369502153247
1683645429615850500,1.9558505859375,-4.4663826124995945,-0.19002806633710861,0.2976381078369915
1683645429625857300,1.965857177734375,-3.9303018053770065,0.8922902002632618,0.25343762198481706
1683645429635864600,1.975864501953125,-3.2272692716002465,0.8657869548715651,0.5210998033508658
1683645429645872400,1.985872314453125,-2.1306600293189284,0.2819967404603958,0.8840254991345107
1683645429655879400,1.99587939453125,-1.4639444250702858,-0.2541756904684007,0.692404902908951
1683645429665886500,2.005886474609375,-1.4008137228965758,-0.6118237381100654,0.5627371972493826
1683645429675894500,2.01589453125,-0.7429378431856631,-0.5333531357243657,-0.3984527170430869
1683645429685901300,2.0259013671875,-0.3334931189417839,-0.4847834583446383,-0.373125675823912
1683645429695908600,2.03590869140625,-0.4926040689677,-0.968677420503646,0.15947313440181313
1683645429705916400,2.04591650390625,-0.16693243743181227,-1.0644722287863493,0.3253988059438765
1683645429715923500,2.05592333984375,0.19031097493171692,-0.7105940550722182,0.4282235128633678
1683645429725930500,2.065930419921875,0.286601019385457,-0.45731458279117937,0.5480164518490434
1683645429735937300,2.075937255859375,0.08125964858233928,-0.19572540119588375,0.5540864924777299
1683645429745945300,2.0859453125,-0.481393523645401,0.14463380412310362,0.5981926876425743
1683645429755952400,2.095952392578125,-1.247890521594882,0.2453003100953996,0.5875595038168132
1683645429765959400,2.10595947265625,-1.3387538648247719,0.29838512681201096,0.5809424237646162
1683645429775967200,2.11596728515625,-1.0218617520719766,0.14966770663708448,0.4888802261389792
1683645429785974500,2.125974609375,-0.5720207200318574,0.22034254058003425,0.2339567860431969
1683645429795981300,2.135981201171875,-0.3247960177451372,0.10824746262058615,-0.1088203306050971
1683645429805988600,2.145988525390625,-0.7396551682531833,-0.17513123371750117,0.03046736324969679
1683645429815996400,2.155996337890625,-0.8414484862983226,-0.17073972076028585,0.2226964102298021
1683645429826003500,2.16600341796875,-0.6824433347344399,-0.1237451837427914,0.28522556631378826
1683645429836010500,2.176010498046875,-0.297615749874711,-0.14512816351130603,0.4369768742918968
1683645429846018600,2.1860185546875,0.0990881507396698,-0.19612652934268116,0.6058496686691418
1683645429856025300,2.196025390625,0.2031821469426155,-0.11713701764941215,0.5740183966550976
1683645429866032400,2.206032470703125,0.1872486647516489,0.027488457036763426,0.48786805342175066
1683645429876039400,2.216039306640625,-0.017512860336899756,0.06698679307997227,0.3822084153372794
1683645429886047500,2.226047607421875,-0.1535468861579895,-0.038079847547411914,-0.0002731909181922674
1683645429896054500,2.236054443359375,-0.28748130935132504,-0.15863602599054574,-0.264741727342084
1683645429906061300,2.246061279296875,-0.019522446593642235,-0.1622467638336122,-0.1843277358036488
1683645429916069600,2.256069580078125,0.7596124991327524,-0.02289893728941679,-0.0931629254091531
1683645429926076400,2.266076416015625,1.4259393963247537,0.24569281654432415,0.09128529496900736
1683645429936083500,2.27608349609375,1.847704088437557,0.571403318785876,0.24408187421634792
1683645429946091500,2.286091552734375,2.201361459007859,0.7906444739952683,0.6264850084081292
1683645429956098600,2.2960986328125,2.4479104539901018,0.9556384907104074,0.9022723728343844
1683645429966105300,2.306105224609375,2.6627088044464586,1.1997605508066713,0.845646960901469
1683645429976112400,2.3161123046875,2.7787662101656196,1.5442628472797573,0.5638603560604155
1683645429986120400,2.326120361328125,2.9647113911032674,1.9087679212093351,0.48829833459779615
1683645429996127500,2.33612744140625,3.402488475862145,2.3584048089794813,0.4167427722975611
1683645430006134500,2.346134521484375,4.182095130753517,3.1203055651798843,0.4646557393342256
1683645430016142300,2.356142333984375,4.461069308522343,4.139645397558808,0.5680535699665547
1683645430026149600,2.366149658203125,4.209512714511156,5.540367935040593,0.6268491655454039
1683645430036156400,2.376156494140625,3.96086294785738,6.786982445350289,0.6892652897089719
1683645430046164500,2.38616455078125,4.1092338926821945,7.636644048720598,0.7163865208685398
1683645430056171500,2.396171630859375,4.440842513051629,8.25306095983982,0.7752548894226551
1683645430066178600,2.406178466796875,4.718366492012143,8.679412395220995,0.560805498534441
1683645430076185300,2.416185302734375,4.715339253145456,8.738834890526533,0.218662624669075
1683645430086193700,2.426193603515625,4.532682592359185,8.549906894385813,0.1974392193764448
1683645430096200400,2.436200439453125,4.1767128531932824,8.07732328466177,0.6750906338840723
1683645430106207500,2.44620751953125,3.7267116621553895,8.118293592953682,1.1508195558965206
1683645430116215600,2.456215576171875,3.177149149908125,8.417470600795745,1.6678519636780023
1683645430126222300,2.466222412109375,2.15282246902734,8.165681951594353,1.4874813680022954
1683645430136229600,2.476229736328125,0.5751195628300309,7.428557178601622,1.1287117689847945
1683645430146236700,2.486236572265625,-0.46491994322836394,5.811878937321901,-0.03527238891124725
1683645430156244500,2.496244384765625,-0.7311340081453322,4.121044449724256,-1.3535831851661204
1683645430166251800,2.506251708984375,-1.0974471544101834,2.9421564449459314,-1.7610329362004995
1683645430176258600,2.516258544921875,-1.1309659776523708,1.7969405542753636,-2.2635177631914614
1683645430186266600,2.5262666015625,-1.6137620615720747,0.29886224280446766,-3.089953389275074
1683645430196273700,2.536273681640625,-3.570091359901428,0.055899289615452284,-1.953120273154974
1683645430206280400,2.546280517578125,-4.4856724193811415,-0.23732436278015373,-1.8222259483098984
1683645430216287500,2.55628759765625,-5.389974544477463,-1.054375489924848,-3.9891093836545943
1683645430226295600,2.566295654296875,-6.723589877369999,-2.268494967082143,-6.943834802794456
1683645430236302600,2.576302490234375,-7.230976504927873,-4.03565749207884,-10.249390260124207
1683645430246309600,2.5863095703125,-5.62769258275032,-5.618130389156938,-10.932446173799038
1683645430256317700,2.596317626953125,-4.901527595189213,-6.344586468619108,-9.55464683126509
1683645430266324500,2.606324462890625,-5.354354949563741,-6.720151135092974,-9.240736949193478
1683645430276331800,2.616331787109375,-4.903327338087559,-7.276752167674899,-10.08421840262413
1683645430286338600,2.626338623046875,-4.5950341268539425,-8.246637648794055,-11.607976952666043
1683645430296346600,2.6363466796875,-4.691318910610676,-9.317500455400348,-12.822913883686065
1683645430306353700,2.646353759765625,-3.95144396212697,-10.252810882222652,-13.43164199386835
1683645430316360400,2.6563603515625,-2.0474024849176407,-10.555288100653886,-13.65575937681198
1683645430326368500,2.666368408203125,0.792808008704707,-10.334612382596731,-12.70070906125307
1683645430336375600,2.67637548828125,3.394491631889343,-9.983516971468925,-10.325523067212105
1683645430346382600,2.686382568359375,4.985801038634777,-9.270880743044614,-7.697130373865366
1683645430356390400,2.696390380859375,5.878541320753097,-8.417692719113827,-5.576671420565247
1683645430366397700,2.706397705078125,6.183215172445774,-7.409946001634001,-4.30902055196762
1683645430376404500,2.716404541015625,6.335193201851844,-6.326061216369271,-3.8465661220699547
1683645430386411800,2.726411865234375,4.741801728135347,-5.178605583947896,-3.2065970704495905
1683645430396419600,2.736419677734375,2.873985410517454,-3.23010624859184,-1.8805553876817225
1683645430406426600,2.746426513671875,1.0368085613131524,-1.5689102356716988,-1.3490332667768001
1683645430416433700,2.75643359375,-0.5514801824368536,-1.7226067594334482,-2.970049829521775
1683645430426441700,2.766441650390625,-3.2328128772020337,-2.631424900649488,-5.646930951705575
1683645430436448500,2.776448486328125,-6.541292113023996,-0.8835787782803177,-4.264591043132543
1683645430446455600,2.78645556640625,-6.623121670448779,1.6829890347942709,-1.0832347969233989
1683645430456462600,2.796462646484375,-4.529133083184063,2.0246417870551348,1.1544669724881649
1683645430466470400,2.806470458984375,-2.9796777818277476,2.157822323141247,2.0044033011466262
1683645430476477700,2.816477783203125,-1.9375570855811237,2.6596391877427696,2.2899673786997794
1683645430486484500,2.826484375,-1.5839374166727065,3.18199863576591,2.72468098423481
1683645430496492500,2.836492431640625,-1.8552961510017514,3.6224452319949862,3.184458888399601
1683645430506499600,2.84649951171875,-2.347029574614763,4.151743831631541,3.5997687052845952
1683645430516506600,2.856506591796875,-2.8622496722772715,4.804480010366439,3.8739059644162652
1683645430526514400,2.866514404296875,-3.3232644247606395,5.594213506996631,4.424636059138178
1683645430536521700,2.876521728515625,-3.4775092300549146,5.983553600844741,5.094648366844654
1683645430546528500,2.886528564453125,-3.022814328242838,6.387184670373797,5.154506330958008
1683645430556535600,2.89653564453125,-1.3759084142208098,6.716902362430095,4.491297858047485
1683645430566543600,2.906543701171875,-0.4916483756780624,6.7075967739462845,4.057167605358362
1683645430576550400,2.91655029296875,0.13576923740506172,6.597917671087384,3.376148165947199
1683645430586557700,2.9265576171875,1.456523335158825,6.25222674935162,2.486293083876371
1683645430596565500,2.9365654296875,2.906484535323083,6.113309277048707,2.1963825015515086
1683645430606572500,2.946572509765625,3.3806460618883367,6.201269884574413,2.6822113772958516
1683645430616579600,2.95657958984375,2.2632287171170113,6.437081212443113,3.057859630399942
1683645430626587600,2.966587646484375,1.789551174676418,6.403491077530384,1.6771113749325275
1683645430636594400,2.976594482421875,1.910198830795288,5.48168076827228,-0.8993126462459564
1683645430646601700,2.986601806640625,1.4797709397554397,4.424775175347924,-2.62908009108901
1683645430656608500,2.9966083984375,1.2121151515975594,3.877466871768236,-3.6849955039322375
1683645430666616600,3.006616455078125,1.0653767764106392,3.066282006308436,-4.828569911006093
1683645430676623600,3.01662353515625,1.18022246825248,1.7039391761034726,-5.944305878561734
1683645430686630400,3.02663037109375,1.728251633452624,0.27500468961596486,-7.183333879265189
1683645430696638500,3.036638427734375,2.216790352677554,-1.0973445708185434,-8.08532538933158
1683645430706645500,3.0466455078125,2.810308764898777,-2.109126242902875,-7.859461454981565
1683645430716652500,3.056652587890625,3.116857762813568,-2.792186248230934,-7.792285861331224
1683645430726660600,3.06666064453125,2.6616309460818766,-3.8663223774194715,-8.443562488907576
1683645430736667600,3.076667724609375,2.4035680389165877,-5.157306775331497,-8.268432716494798
1683645430746674400,3.08667431640625,1.9896729111351072,-5.610917389038205,-7.146655130687355
1683645430756681700,3.096681640625,0.7657191454447806,-5.654717952319979,-5.165538012582063
1683645430766689500,3.106689453125,-0.8671217106066643,-5.521348177272081,-3.058220280405879
1683645430776696600,3.116696533203125,-2.77733003988266,-5.376787730646133,-1.5042220749229192
1683645430786703600,3.12670361328125,-4.338148446774483,-5.250055201655626,-0.8231640570670365
1683645430796711700,3.136711669921875,-5.317267035663128,-5.474290658020973,0.058658525195717806
1683645430806718500,3.146718505859375,-5.647397984695434,-5.339594018283486,1.2115706694573163
1683645430816725500,3.1567255859375,-5.614135182040929,-4.689124615436792,1.974343678447604
1683645430826732500,3.166732666015625,-6.047956807172298,-4.230658378392458,1.4574714296638964
1683645430836740600,3.17674072265625,-6.930619931912422,-4.014245578476786,1.23388771520555
1683645430846747600,3.18674755859375,-7.198121698552369,-3.5326541941717267,1.8024562489569187
1683645430856754400,3.19675439453125,-6.530674857419728,-2.7457407233983275,3.0576988868802784
1683645430866762800,3.2067626953125,-5.196959571284055,-1.193103869396448,4.742340657317638
1683645430876769500,3.21676953125,-3.8877322451949117,0.6645154638558626,7.406135503435134
1683645430886776600,3.226776611328125,-2.576359723770618,2.532450147156417,10.512969884884356
1683645430896784600,3.23678466796875,0.7976382784053683,3.845834300664067,11.207419299232958
1683645430906791700,3.246791748046875,7.533463660231233,4.898014618632197,9.654996964764594
1683645430916798500,3.256798583984375,13.813750967419146,6.502139083287119,7.515504225170612
1683645430926805500,3.266805419921875,8.550655082404614,5.626951408994198,4.436180950981378
1683645430936813600,3.2768134765625,-2.414727730834484,3.5238743831276893,1.5848492708206177
1683645430946820600,3.286820556640625,-6.956766765081882,4.59839512771964,-0.1547492476850748
1683645430956827600,3.29682763671875,-9.197895001810789,6.908793300029635,0.8240461005985736
1683645430966835500,3.30683544921875,-6.897934052363038,6.936769102191924,4.9050838263660665
1683645430976842800,3.3168427734375,-2.5743232495069504,8.485276309043169,8.61936796862483
1683645430986849500,3.326849609375,-2.594526956363022,9.794449274596571,9.342592226558923
1683645430996857600,3.336857666015625,-4.544232452638447,9.298270269751548,8.420922202554344
1683645431006864600,3.34686474609375,-3.6139857389464973,6.227402689218521,4.120034103637933
1683645431016871700,3.35687158203125,0.42363136276751756,1.6040286030650137,-1.3867016109138726
1683645431026878700,3.366878662109375,-1.116929853515327,0.9049556205689907,-5.090890475615859
1683645431036886800,3.37688671875,-4.559689257228374,-0.21575170565843582,-7.6954270770788185
1683645431046893600,3.3868935546875,-6.790311297512054,-0.29193595067262645,-8.183203579759597
1683645431056900600,3.396900634765625,-6.453185959547758,1.364878486162424,-8.284521681508421
1683645431066908700,3.40690869140625,-4.777057750433683,2.432370355030894,-8.160821067559718
1683645431076915500,3.41691552734375,-2.0213842465639114,2.6424422614872456,-7.939730338960885
1683645431086922800,3.4269228515625,2.3275077125430106,1.63120887093544,-8.958328120800852
1683645431096930600,3.4369306640625,5.527423697793483,-0.6098387017726897,-11.531744776856899
1683645431106937600,3.4469375,7.345349903082847,-2.59979905154705,-13.099025657761096
1683645431116944600,3.456944580078125,8.130096258950234,-3.143361154335737,-13.1291940015316
1683645431126951700,3.46695166015625,7.522585123342275,-3.2963352090418336,-12.393725179052351
1683645431136959500,3.47695947265625,6.010544483622908,-3.613492110210657,-11.82382101278305
1683645431146966800,3.486966796875,4.17282052192986,-3.9805572438865897,-11.644673236900568
1683645431156973600,3.4969736328125,2.3705822996377943,-4.005558414152264,-10.76972112492919
1683645431166981600,3.506981689453125,0.7854004358619451,-4.353179427167773,-9.408117130392789
1683645431176988700,3.51698876953125,-0.48940962030794466,-4.803703765296936,-7.538946475556492
1683645431186995700,3.52699560546875,-0.3586135316729545,-5.056424726912379,-6.20442805634439
1683645431197003500,3.53700341796875,0.40669633885119105,-5.501982967066764,-5.7434267478644845
1683645431207010800,3.5470107421875,0.7762269493252039,-6.029366088470816,-5.770539795717597
1683645431217017600,3.557017578125,0.6137316175580024,-6.1586804506480695,-5.891435289117694
1683645431227024600,3.567024658203125,-0.03682020287513733,-5.778879754039645,-5.504446726831794
1683645431237032700,3.57703271484375,-0.8372726619184017,-4.58496865991354,-4.611919210681319
1683645431247039500,3.58703955078125,-1.3987445154070854,-2.8502491456210612,-3.393950949141383
1683645431257046800,3.597046875,-2.4875462988078594,-1.5737725810110568,-2.1957173156410454
1683645431267054600,3.6070546875,-3.309076617193222,-0.5539958185195922,-1.3548983594179154
1683645431277061600,3.6170615234375,-3.7003672605872153,0.277130595728755,-1.2367606402933597
1683645431287068700,3.627068603515625,-3.8430560681223866,0.5880398346796631,-1.4407576107501983
1683645431297076700,3.63707666015625,-3.50861719276309,0.5961921614751219,-1.6673679795533418
1683645431307083500,3.64708349609375,-2.7853894276976585,1.4196347432225942,-1.6992121475815771
1683645431317090800,3.6570908203125,-2.2153671880066392,3.474343459500372,-1.5777543441236017
1683645431327097600,3.66709765625,-2.1630086397379635,4.622177569845318,-0.579188711965084
1683645431337105700,3.677105712890625,-1.7726912252902984,6.137157185626029,0.8545137195765972
1683645431347112700,3.68711279296875,-1.300625501960516,6.865539849236607,1.5125567725479603
1683645431357119500,3.697119384765625,-1.6590613389790057,6.153156718790531,1.6880284902662037
1683645431367127600,3.70712744140625,-2.2528191129140556,5.109715587595105,0.9751707280457019
1683645431377134600,3.717134521484375,-2.3996903207004068,4.45982661498487,-0.6341752706497907
1683645431387141600,3.7271416015625,-2.2110510783731936,4.522911724451184,-2.052530495455861
1683645431397148700,3.737148681640625,-2.079949832779169,4.707717379964888,-2.3639205036610362
1683645431407156700,3.74715673828125,-1.6441647986203431,5.195855409434437,-2.156646703490615
1683645431417163500,3.75716357421875,-1.0109772968988866,5.474021777951717,-1.5471499470233916
1683645431427170800,3.7671708984375,-0.2864833843551576,5.325338698437809,-0.5567781427145004
1683645431437178600,3.7771787109375,0.6005448767919093,5.038569921270012,0.7291308516293764
1683645431447185700,3.787185546875,1.5649369481265545,4.941126030606031,1.821060996183753
1683645431457192700,3.797192626953125,2.0571726221732796,5.515473732280731,2.035624368840456
1683645431467200800,3.80720068359375,1.3278876028954982,6.0024108615279195,2.141858884203434
1683645431477207600,3.81720751953125,0.33068920396957546,5.881885955005884,2.996363251429796
1683645431487214600,3.827214599609375,0.21706567433383314,5.515668962591886,3.5043712257564064
1683645431497222700,3.83722265625,0.5925836155891419,5.333322098407149,3.0688252610504625
1683645431507229400,3.8472294921875,0.8617512696146965,5.085663096356392,2.6499972069114444
1683645431517236700,3.85723681640625,1.051137457851693,4.737322829155624,2.479378189921379
1683645431527243500,3.867243408203125,1.1063502265077083,4.652284538817406,2.2710744621813297
1683645431537251600,3.87725146484375,0.939163010597229,5.032285726433992,2.195459541487694
1683645431547258600,3.887258544921875,0.3545229013584554,5.387580342817306,2.3504046040058135
1683645431557265700,3.897265625,-0.6314904154799879,5.277995932504535,2.604521988415718
1683645431567273700,3.907273681640625,-1.379781456261873,4.99493360863924,2.423571547025442
1683645431577280800,3.91728076171875,-1.420560041373968,4.765317628279328,1.823670301899314
1683645431587287600,3.92728759765625,-1.0785019231826067,4.559124609082937,1.087768348699808
1683645431597294600,3.937294677734375,-0.3249874486640095,4.519403424069285,1.0179951397716998
1683645431607302700,3.947302734375,6.077265903764963,3.709212830343842,1.3482564371854067
1683645431617309700,3.957309814453125,10.994495510476828,1.1226993768274784,-0.8886147266209125
1683645431627316700,3.967316650390625,5.645042361479997,0.8792311044648289,-1.67125037394464
1683645431637324500,3.977324462890625,2.5146552550077437,1.6540467256873845,-1.0170470452666283
1683645431647331800,3.987331787109375,-0.14666998612582682,1.8712191117987036,-0.010251929423213004
1683645431657338600,3.997338623046875,-1.0997022398605942,1.8996248298108576,1.3157891688227652
1683645431667346700,4.0073466796875,-1.4416282561048865,1.1241261947602033,2.46359785246551
1683645431677353700,4.017353759765625,-1.1725415583610534,1.044772672060132,1.6773498598635195
1683645431687360800,4.02736083984375,-2.040562702025473,1.0715320841699838,1.1398182694107293
1683645431697367600,4.037367431640625,-4.052961970362067,1.0205033232003449,-0.3621943127691746
1683645431707375900,4.0473759765625,-5.008330265828967,0.5701818141669035,2.34959036501348
1683645431717382700,4.057382568359375,1.2435668131768702,-0.6189952371746301,10.393112502360344
1683645431727389700,4.0673896484375,3.493139637646079,1.0259913992226124,1.933639912137389
1683645431737397800,4.077397705078125,-1.4080480580642818,3.8440065007150173,-1.793473901078105
1683645431747404500,4.087404541015625,-3.6573634006410836,5.159126391974091,-2.6435850017815827
1683645431757411800,4.097411865234375,-4.354657098504901,3.3114041833579537,-0.6660948420017957
1683645431767419600,4.107419677734375,-4.301149964722991,1.1889181081444025,-0.027930209454894064
1683645431777426700,4.1174267578125,-3.217644534164667,0.48620881497263907,-0.5850935520946979
1683645431787433700,4.127433837890625,-3.6055426125109196,0.19093056813478468,-1.9978864665985105
1683645431797440800,4.137440673828125,-4.183450344754755,-0.7245224810510873,-0.1287029522806406
1683645431807448600,4.147448486328125,-2.0378034664452076,-0.4253115709394216,0.8221569258511066
1683645431817455900,4.157455810546875,-0.8752546020492911,1.264115972469747,1.9124018937975167
1683645431827462700,4.167462646484375,-0.7835919251352548,2.394617255219817,1.836460225367546
1683645431837470700,4.177470703125,-1.4092740927278995,3.202728704583645,1.9095687161982058
1683645431847477800,4.187477783203125,-2.353900337167084,3.953526905880868,2.2076994298577306
1683645431857484500,4.197484619140625,-3.33785672147572,4.7059743356898425,2.5786791066288948
1683645431867492600,4.20749267578125,-4.92891186119914,5.392527151569724,2.609718972536921
1683645431877499600,4.217499755859375,-7.10895522236824,5.3370870038986205,1.7749924879699945
1683645431887506700,4.227506591796875,-9.084971217942238,4.423933463826775,0.43820670834779735
1683645431897513700,4.237513671875,-9.579869535326957,3.501459137701988,-0.4661608832001686
1683645431907521800,4.247521728515625,-9.230777865236997,3.1018007711961864,-0.5173474650800228
1683645431917528600,4.257528564453125,-8.583378955876826,3.4642233397632833,0.05060965877473354
1683645431927535900,4.267535888671875,-7.03025285705328,4.576010861954093,1.101235733038187
1683645431937543700,4.277543701171875,-4.774594282929599,5.856486140811443,2.1532646598368883
1683645431947550700,4.28755078125,-2.2493641501545905,6.9079638634681695,2.7175053935170173
1683645431957557800,4.297557861328125,0.22340488729272037,7.512451851862669,2.960213495162129
1683645431967565800,4.30756591796875,1.970253778785467,7.67599172424674,2.853918189522624
1683645431977572600,4.317572509765625,2.968453500241041,7.339850721144676,1.6941203774005174
1683645431987579600,4.32757958984375,3.4983810454308983,6.478840040764212,-0.6430079809248447
1683645431997586700,4.337586669921875,3.6435368276014923,5.283448352691531,-3.1506115638554095
1683645432007594500,4.347594482421875,3.3752795664191244,3.9014275930702684,-5.661744489955902
1683645432017601800,4.357601806640625,2.7967653927147387,2.4916622096940872,-7.625533456641435
1683645432027608600,4.367608642578125,2.0512240890324116,1.2978878936901688,-8.776555841633677
1683645432037616600,4.37761669921875,0.8724450975865126,0.67340691858083,-9.260558670994639
1683645432047623700,4.387623779296875,-0.253638953243196,0.6293458046667277,-9.261308612579107
1683645432057630700,4.397630615234375,-0.8287959254741668,0.5144365460693836,-8.851981961756945
1683645432067638500,4.407638427734375,-0.4017462786957621,0.2536259476311505,-8.163339772382377
1683645432077645800,4.417645751953125,1.1939438273519276,-0.716123193757236,-6.942277636480331
1683645432087652600,4.427652587890625,2.2965412041321396,-1.5705170863464473,-5.964015956681966
1683645432097659600,4.43765966796875,2.47366916462481,-1.858998804911971,-5.8926873350054025
1683645432107667700,4.447667724609375,2.4548092735931277,-2.0489766023665665,-5.969413431811333
1683645432117674500,4.457674560546875,2.3289307310834526,-1.632531059449911,-5.155635627248883
1683645432127681800,4.467681884765625,2.126777927188575,-1.8164400583848357,-4.624126365825534
1683645432137689300,4.477689453125,2.5554285794228315,-2.094331993874907,-3.884925371080637
1683645432147696400,4.4876962890625,2.7724460672333833,-2.5780375938549636,-2.8096248742878434
1683645432157703400,4.497703369140625,3.173604024647176,-2.091350639976561,-1.7424013009667396
1683645432167711500,4.50771142578125,3.0541119683042166,-2.036765940091014,-2.218150681245327
1683645432177718500,4.517718505859375,2.7119094732061026,-1.7755793479472397,-2.2480489759027957
1683645432187725300,4.527725341796875,2.3273925617307425,-1.764416733419895,-2.506745504796505
1683645432197732400,4.537732421875,2.469726564478874,-2.1422300556033846,-2.9760978775143623
1683645432207740400,4.547740478515625,2.690174318999052,-2.0683342137873173,-2.678295665156841
1683645432217747500,4.55774755859375,2.473251523734629,-1.785767564484477,-2.393497895801067
1683645432227754200,4.567754150390625,1.4562754978775978,-2.0031465790838,-3.1892391084134575
1683645432237762600,4.577762451171875,0.6444649017348885,-2.6481027714669705,-4.667772615328431
1683645432247769300,4.587769287109375,0.7404872351631522,-3.338582697662711,-6.388629608485102
1683645432257776400,4.5977763671875,0.9257797974109649,-4.206908084970713,-8.349224163043498
1683645432267784400,4.607784423828125,0.9086497989118099,-4.91706827867031,-9.920885450989008
1683645432277791500,4.61779150390625,1.1624401433244347,-5.107838103285432,-10.60500168737173
1683645432287798500,4.627798583984375,1.3019555815204977,-5.167282810422778,-10.796772797983884
1683645432297806600,4.637806640625,-0.35586803235709663,-4.954323950353264,-10.246296970283984
1683645432307813400,4.6478134765625,-3.1591540590122342,-4.416804634860157,-8.88647576751113
1683645432317820400,4.6578203125,-6.4193047327339645,-4.248896045872569,-7.035277407217025
1683645432327827500,4.667827392578125,-9.924861368882656,-4.438115718436241,-4.339689246475697
1683645432337835300,4.677835205078125,-11.812712758791445,-4.893959790283441,-1.0701362458974122
1683645432347842600,4.687842529296875,-10.23780152913928,-5.370736175522208,0.22249416565597055
1683645432357849300,4.697849365234375,-6.797979055660963,-5.205495928961038,-0.5378238513976336
1683645432367857400,4.707857421875,-3.2375296765908597,-3.9367689555644985,-0.8640402573347091
1683645432377864400,4.717864501953125,-2.38316062618196,-3.8198277527481315,-2.480344404605031
1683645432387871500,4.72787158203125,-1.5692685475900767,-2.5325480545729397,-1.9321248313993213
1683645432397879300,4.73787939453125,-3.6272663685411213,-1.6814491118758916,-2.0750901177883145
1683645432407886600,4.747886474609375,-3.5833974161982534,-2.421509938320517,-3.1822657622694965
1683645432417893400,4.757893310546875,-0.7553206471577286,-2.1761551215589043,-3.9709436123669146
1683645432427900400,4.767900390625,2.1946952791169285,-1.4981977000668645,-4.937503163933754
1683645432437908500,4.777908447265625,3.9983275861158964,0.752164228953421,-4.387682585272192
1683645432447915300,4.787915283203125,5.201102662438154,1.8763707954734563,-3.926600028249621
1683645432457922600,4.797922607421875,4.482221694405377,2.0504072196915746,-3.1176041972666977
1683645432467930400,4.807930419921875,2.4733213741004465,2.352869240553677,-1.616486518099904
1683645432477937400,4.8179375,1.5372382093399761,1.6970704593777655,-0.7578279538035392
1683645432487944400,4.8279443359375,4.530122971004247,-0.00838818137794733,-0.7051993564218282
1683645432497952500,4.837952392578125,6.2879661712527275,0.4046063443019986,-0.4721516480475664
1683645432507959300,4.847959228515625,5.780383728861809,1.9537335827477276,-0.0861824919372797
1683645432517966600,4.857966552734375,5.102534151658415,2.933556958904862,1.1004577344030142
1683645432527973400,4.867973388671875,3.5793034248828888,3.490979829263687,2.8936837981998917
1683645432537981400,4.8779814453125,0.6698603320151567,3.9923447123140092,4.812267595502734
1683645432547988500,4.887988525390625,-1.7003757845334708,4.3288054488897325,6.649040540081262
1683645432557995300,4.897995361328125,-1.8614735244624316,4.06310050253868,8.049648511272668
1683645432568003300,4.90800341796875,-1.6841908117994666,4.353780315670371,8.604891699504853
1683645432578010400,4.91801025390625,-1.3981721223466097,5.1618140236228705,7.866056030941009
1683645432588017400,4.928017333984375,-1.802518792799115,3.553949787917733,7.307874451169371
1683645432598025200,4.938025146484375,-2.022853150072694,5.103367095351219,7.190886486601829
1683645432608032500,4.948032470703125,-1.4117504197135566,5.279399369561672,8.077553586286307
1683645432618039300,4.958039306640625,-1.141355561980605,6.111120242571831,7.940460406801104
1683645432628047400,4.96804736328125,-1.108302018162608,6.511472144299745,10.440552298927306
1683645432638054400,4.978054443359375,2.1935236049890516,4.833233811163902,17.032773804199696
1683645432648061400,4.9880615234375,8.462830668479203,8.020467424973845,10.792904432117938
1683645432658068500,4.998068359375,6.242636498707532,14.13793732883334,-0.47666707964539523
1683645432668076500,5.00807666015625,2.199330829963088,12.520967411130666,-3.1490900533765553
1683645432678083300,5.018083251953125,3.4275404995322227,8.55743027562797,-7.610338225597142
1683645432688090400,5.02809033203125,4.7033337580531835,7.314388947629928,-16.268452981245517
1683645432698098400,5.038098388671875,4.202818769830465,4.401080996027589,-22.890382227039336
1683645432708105200,5.048105224609375,2.616038823208213,-1.1474532943338156,-26.046463746738432
1683645432718112500,5.058112548828125,-0.40115795741379257,-5.104416896665096,-21.115154176747797
1683645432728120300,5.068120361328125,-3.0133085410118103,-4.549461877724528,-8.530226626881957
1683645432738127400,5.07812744140625,-4.542015068849921,-1.3783598990261554,-2.073904122874141
1683645432748134400,5.088134521484375,-3.4780730014175174,-0.8329419392377138,-2.410361352318525
1683645432758141400,5.098141357421875,-1.6895318805664776,-1.582554437881708,-5.363159018266201
1683645432768149200,5.108149169921875,-0.7650384697042405,-1.9726824672371148,-6.960162837260961
1683645432778156500,5.118156494140625,0.7379964412607252,-1.4671476050257681,-7.636926957315206
1683645432788163300,5.128163330078125,2.6793004582852125,0.24185996038317678,-10.036879143822192
1683645432798171600,5.138171630859375,0.5592839880555868,1.7669821999937294,-9.481785593193768
1683645432808178400,5.148178466796875,-0.8000041307538748,1.0598054060190916,-7.088359593585134
1683645432818185200,5.158185302734375,-1.966454971024394,1.4921598812073469,-7.457034500545263
1683645432828193500,5.168193603515625,-3.9088989518642423,4.589209366223216,-7.713080222669244
1683645432838200300,5.178200439453125,2.600948221582174,6.62767217335999,-7.187242577141523
1683645432848207400,5.188207275390625,7.184296586817503,3.974351959505677,-3.874572319370508
1683645432858215400,5.19821533203125,2.373575636234879,0.1604565194159746,3.5761925993859767
1683645432868222500,5.208222412109375,-1.511037015634775,-2.5305156719624993,8.379763678213953
1683645432878229500,5.2182294921875,-2.5674557018250224,-4.221275633019209,9.853583600610493
1683645432888236500,5.228236572265625,-3.403141971334815,-4.088517267867923,9.835995336949825
1683645432898244400,5.238244384765625,-3.940754225808382,-2.3035013985335824,9.969530531692504
1683645432908251600,5.248251708984375,-3.5378275051563977,-0.8048194220811128,9.619987026181816
1683645432918258400,5.258258544921875,-1.2593113486669958,-0.15152560946345328,9.50601168743372
1683645432928266500,5.2682666015625,1.3822412705041467,-0.4002197997808456,8.10363729109168
1683645432938273500,5.2782734375,3.831197872546315,0.48789165349304675,7.277764559587836
1683645432948280300,5.2882802734375,4.270161244480311,1.9234584176018834,6.820821002066135
1683645432958288400,5.298288330078125,4.604554527132213,1.8891525356352328,6.32335897167325
1683645432968295400,5.30829541015625,4.284370094835758,0.8199836734652519,5.220658426779508
1683645432978302500,5.318302490234375,3.440384199014306,0.5435585956573487,4.350458477771282
1683645432988310300,5.328310302734375,2.3782936046674847,1.2746356129184364,3.0007524262994525
1683645432998317600,5.338317626953125,1.4658388605147599,2.141608708834648,2.280646592646837
1683645433008324400,5.348324462890625,-0.2545858787044883,1.8611551061630247,1.6388526636868714
1683645433018331600,5.35833154296875,-1.2064210316091775,0.17982582127451896,0.5574006585270166
1683645433028339500,5.36833935546875,0.7919137632787228,-0.4944263159587979,0.9619266310691833
1683645433038346500,5.378346435546875,2.2389874253079296,-0.4705678859874606,1.2704706021934746
1683645433048353500,5.388353515625,2.14790927028358,-0.9070987700775265,1.0217337417781351
1683645433058361600,5.398361572265625,2.908429531911015,-0.4991705878764391,2.493800098505616
1683645433068368400,5.408368408203125,1.1342521597161888,-0.25658465130627156,2.3505390440404414
1683645433078375400,5.41837548828125,-6.363762878254056,0.484679705709219,-7.888162064287066
1683645433088383500,5.428383544921875,-2.949247279989719,2.2375141378849746,-9.339895827081799
1683645433098390300,5.438390380859375,-0.02629530172944069,3.8663264690726993,-4.844803837448358
1683645433108397600,5.4483974609375,-0.7167296352177858,3.591619301098585,-3.0800521729856727
1683645433118405400,5.4584052734375,-4.001598278349638,1.892743838125467,-2.158268751734495
1683645433128412400,5.468412353515625,-3.4007775802910327,2.5913223151028153,0.16721534602642057
1683645433138419500,5.47841943359375,-1.7533096484720705,3.0395985820442437,1.4617664965093136
1683645433148426500,5.488426513671875,1.2304404973611236,2.558448804026842,1.761677079322934
1683645433158434300,5.498434326171875,4.4845174041271205,2.8322470404624935,-0.3893108677536249
1683645433168441600,5.508441650390625,6.711302058205008,2.5001848311066626,-5.391662059172988
1683645433178448400,5.518448486328125,6.032076516473293,3.5882185527443884,-0.3368482745885849
1683645433188456400,5.52845654296875,1.0412708014190197,3.086878219613433,5.7231812476933
1683645433198463500,5.53846337890625,-1.0644210831210017,-2.061620395362377,2.849428476887941
1683645433208470300,5.54847021484375,-3.5248867750406263,-3.5568268046587703,2.7715099554270504
1683645433218478300,5.558478271484375,-6.0114674436867235,-1.6552970180094242,5.2066959524005645
1683645433228485400,5.5684853515625,-6.280909823000431,-0.9251105198472738,4.59856463906765
1683645433238492400,5.578492431640625,-6.09804857955277,-0.05847966149747371,0.8253367249310016
1683645433248500200,5.588500244140625,-3.0404999147981404,1.796619797888398,1.7996248249232767
1683645433258507500,5.598507568359375,-2.078218771202862,2.82779649079442,1.90051564117074
1683645433268514300,5.608514404296875,-0.7376663325235248,3.481654951557517,1.7645821531146764
1683645433278521300,5.618521240234375,0.1670899660810828,3.7746623308539387,0.24946166755855081
1683645433288529400,5.628529296875,0.5362900659590959,3.4428257469475265,-2.166693465730548
1683645433298536200,5.6385361328125,0.5449906742870807,2.7870506389081475,-3.8274744681090116
1683645433308543500,5.64854345703125,0.2895624995395541,2.269865086391568,-3.870635564443469
1683645433318551300,5.65855126953125,0.11297668309956789,2.352785361662507,-2.212784185776114
1683645433328558300,5.668558349609375,-0.3909656492233276,2.1548159809321166,0.30503245587199923
1683645433338565400,5.6785654296875,-0.9582137480258941,1.3851888682633637,0.8514367963492869
1683645433348573400,5.688573486328125,-0.8605050689458846,0.5073287598907947,-0.13667290824651718
1683645433358580200,5.698580322265625,-0.255101134750247,-0.3440717961013317,-2.391560205736756
1683645433368587500,5.70858740234375,0.2887579051584005,-0.34620763908624647,-4.927365800800919
1683645433378595300,5.71859521484375,1.6017226642102003,-0.036223406025767325,-6.32488808093667
1683645433388602400,5.728602294921875,1.5212167566046118,0.4806172785758972,-5.229101260954141
1683645433398609400,5.738609375,0.7151938039526343,0.712117172986269,-3.7886639681994914
1683645433408616200,5.7486162109375,0.214005738773942,0.0073871876418590545,-3.940941857334971
1683645433418624500,5.75862451171875,0.5274252069801092,-0.4676636889785528,-4.608782081699371
1683645433428631300,5.76863134765625,0.616324848921597,0.35600714856684207,-4.624200600105524
1683645433438638300,5.778638427734375,0.8340952009260654,1.7832056050419807,-4.332687843281031
1683645433448646400,5.788646484375,1.6798232642397284,2.672057063028216,-4.432117354804277
1683645433458653400,5.7986533203125,3.9497456337764856,4.698349539899826,-8.002462397205829
1683645433468660500,5.808660400390625,5.506570294857025,6.9493819155275816,-9.569779518467188
1683645433478668500,5.81866845703125,2.252968604387343,6.625692397719622,-6.306826354545355
1683645433488675300,5.82867529296875,-0.46695115679502486,4.737635256105661,0.3381856606721878
1683645433498682600,5.8386826171875,-6.068429101836681,1.9275646838769316,8.654610546919702
1683645433508690400,5.8486904296875,-8.665988265502452,-1.0929004508912563,12.238476165151596
1683645433518697500,5.858697509765625,-5.626884773498773,-2.570110307987034,11.045137317955493
1683645433528704500,5.86870458984375,-3.5292782879978417,-1.6929136319592595,9.603521044549346
1683645433538711300,5.878711181640625,-1.1980606150209903,-0.49856823806911704,6.934594096240401
1683645433548719400,5.88871923828125,-0.696975133433938,0.05168284096419811,5.531297908878326
1683645433558726400,5.898726318359375,-0.7060434060305356,0.34532384198904037,6.483437889948487
1683645433568733400,5.9087333984375,-0.17885916819944978,-0.07397387548834085,7.762405686852335
1683645433578741200,5.9187412109375,-0.32512115804627534,-1.3389853354930876,7.844703446310758
1683645433588748500,5.92874853515625,-0.3309266294546425,-2.20724379504472,6.329281931981444
1683645433598755300,5.93875537109375,0.012470189994573593,-1.7841048919692635,2.7595564827829597
1683645433608763400,5.948763427734375,-0.16277575614377857,-0.8826549414336681,0.5893161382257938
1683645433618770400,5.9587705078125,-0.4091783283926546,-0.022849837450683117,-0.7867635409086943
1683645433628777500,5.968777587890625,-0.09109291420206427,0.8397156711563467,-2.251597608295083
1683645433638785300,5.978785400390625,0.5327805965334177,1.5155524472326038,-3.7739375237107273
1683645433648792600,5.98879248046875,0.7725771946460008,1.6237819358050822,-3.541140575227141
1683645433658799400,5.99879931640625,0.4970867673397064,0.9499842643409967,-1.64094408300817
1683645433668807400,6.008807373046875,-0.02075871039032936,-0.14196750752329826,0.28968846400678155
1683645433678814500,6.018814453125,-0.5349100828427821,-1.403377728165686,1.0205582682579755
1683645433688821200,6.0288212890625,-0.8110675226904451,-1.783050122219324,1.174659281167388
1683645433698828500,6.03882861328125,-0.36361411643922326,-1.187913607276976,0.24862521673440932
1683645433708836400,6.04883642578125,0.7848492317199707,-0.24878829834163188,-1.5823241362571716
1683645433718843400,6.058843505859375,1.3166180208623408,0.4449962223574519,-1.573061802393198
1683645433728850400,6.068850341796875,0.616989231114462,0.7199272622153162,-0.6301894158840179
1683645433738858500,6.0788583984375,-0.15347316333465277,-0.009710077631473541,-0.06796586724519729
1683645433748865300,6.088865234375,-0.40570831419453024,-0.34416678090840574,0.10777005436718463
1683645433758872600,6.09887255859375,-0.5733621247034519,-0.4413394534155726,0.6169581783890724
1683645433768880400,6.10888037109375,-0.8365601297348737,-0.5038745277836919,1.1199018550634383
1683645433778887400,6.118887451171875,-0.7784434563308954,-0.35791561253666876,1.5964941159069537
1683645433788894500,6.12889453125,-0.5832530387945473,-0.2498173491284251,1.8878706791311501
1683645433798902500,6.138902587890625,-0.845325035470724,-0.03315232801735401,2.1282436158269644
1683645433808909300,6.148909423828125,-1.7851766128540039,0.42832478128075596,2.453352352783084
1683645433818916400,6.158916259765625,-1.4833661877684294,0.7419228209242225,1.2006360184669493
1683645433828923400,6.16892333984375,-1.3028677279293537,1.2896934813186525,0.5096972425878048
1683645433838931200,6.17893115234375,-0.9275898425076157,1.7021403099879622,0.6510697068274021
1683645433848938500,6.1889384765625,-0.5063338305693119,1.7722656933546066,0.33649989954233167
1683645433858945300,6.1989453125,-0.16671908694207668,1.4407111412599682,-0.33202947613000866
1683645433868953300,6.208953369140625,0.43815074037685986,1.6211784753084182,-1.150311606374383
1683645433878960400,6.21896044921875,0.9207324508935213,1.6527438263952732,-2.0476889006435868
1683645433888967400,6.228967529296875,0.6000678338646889,1.2352329923346639,-2.515838327312469
1683645433898975500,6.2389755859375,0.28045316428020595,0.7025117247730494,-2.002723969757557
1683645433908982500,6.248982421875,-0.1102899282336235,-0.20887188301682472,-0.48305181224644184
1683645433918989300,6.2589892578125,-0.8822380311958491,-1.1466460696041583,1.63139533341825
1683645433928997600,6.26899755859375,-0.7977734490923583,-1.4921435145944355,2.360064412754774
1683645433939004400,6.27900439453125,-0.44876843437254427,-1.3729086478829382,2.0379022506445645
1683645433949011200,6.28901123046875,-0.2261507884673774,-1.249514907926321,1.41947458422482
1683645433959019500,6.29901953125,-0.5154961381249129,-1.114383968424797,0.9606786768347024
1683645433969026300,6.3090263671875,-1.0694196220606564,-1.0940566351890564,1.532958340063691
1683645433979033300,6.319033447265625,-1.2688288263358174,-0.9139403065353632,1.633474477779865
1683645433989040400,6.329040283203125,-1.6854571784734724,0.07458557764589786,1.9261229606360195
1683645433999048400,6.33904833984375,-2.5117051730304953,0.5173322675108909,3.0316052452027797
1683645434009055500,6.349055419921875,-1.581910148628801,-1.064627711609006,3.0215058759927746
1683645434019062500,6.3590625,-0.890284705659747,-0.6729255648046731,4.568981401708722
1683645434029070300,6.3690703125,-0.54540700000301,0.3364513842254877,6.455641536006331
1683645434039077600,6.37907763671875,0.11218144106864929,0.8014262725114822,8.41511147044897
1683645434049084400,6.38908447265625,4.696518817341327,0.983221932554245,4.2410219514966006
1683645434059092500,6.399092529296875,5.243024572366476,2.9590760155647993,-0.6117682085305451
1683645434069099500,6.409099609375,-2.815548419117927,1.892132428228855,3.008569237530231
1683645434079106300,6.419106201171875,3.5286125175654885,0.9102800304621458,-9.075756230351328
1683645434089114400,6.4291142578125,-0.8876409131526947,1.9679741434156894,1.8224182560116051
1683645434099121400,6.439121337890625,-1.0449654181532562,1.939473440596461,2.7758997148185967
1683645434109128400,6.44912841796875,-6.490582501006126,1.9522668711960314,3.006972908249497
1683645434119136300,6.45913623046875,4.145547315078973,0.3705354401350021,-13.163030804681776
1683645434129143600,6.4691435546875,1.3638146563231943,0.17577742266654967,-9.68447089653015
1683645434139150600,6.479150634765625,2.9751030212581155,2.069737066322565,-4.677617425255477
1683645434149158000,6.489157958984375,2.2508242858350274,2.801994525539875,-2.884086241032183
1683645434159165700,6.499165771484375,0.8559246092878282,2.1981880896687507,-2.2750933424338697
1683645434169172700,6.5091728515625,-0.25047975855991245,1.0506576384454964,-2.0063895065277815
1683645434179179800,6.5191796875,-0.43194523680023844,0.7427373521775007,-1.725952416599542
1683645434189187800,6.529187744140625,-0.0942282896183431,0.8469722181558609,-1.245792088010907
1683645434199194600,6.539194580078125,-0.690870971339941,0.7244798109531402,-1.1837123561948537
1683645434209201700,6.54920166015625,-0.9949624931000173,0.4490326382666826,-0.9263843391753732
1683645434219209700,6.559209716796875,0.025405732478573917,0.18407120375931263,-0.6528967761240899
1683645434229216500,6.569216552734375,-0.1869382105629891,-0.3576905716091394,-0.30665611155107614
1683645434239223800,6.579223876953125,-0.9108686440050602,-0.8181938674390316,-0.31252456519305705
1683645434249231600,6.589231689453125,-0.6366746131848543,-1.191322831198573,-1.3103075225412846
1683645434259238700,6.59923876953125,-0.9848433962762355,-2.0450363403081893,-0.7457847570493817
1683645434269245700,6.60924560546875,-0.7139948034264146,-3.113507867863774,-0.31063045854214577
1683645434279252700,6.619252685546875,0.9469272148579359,-2.974975595486164,-0.4375236945196986
1683645434289260500,6.629260498046875,1.6013314729355275,-2.8551322414875027,0.47778380871564147
1683645434299267800,6.639267822265625,1.9260956342376767,-1.495923033133149,-0.06194795866254717
1683645434309274600,6.649274658203125,0.3133668612360954,0.6119190151780843,-2.847180990222096
1683645434319282700,6.65928271484375,-3.116605833879113,0.499236054328084,-7.487180632483959
1683645434329289700,6.669289794921875,-4.606377358645201,1.4843179355353116,-9.842573546296357
1683645434339296500,6.679296630859375,-4.096499498793483,3.490119997563958,-6.314707463183999
1683645434349304600,6.6893046875,-1.149415095926076,5.35838581251502,1.165789161491394
1683645434359311600,6.6993115234375,9.692108259540795,5.5225803494155405,1.233625264877081
1683645434369318700,6.709318603515625,3.311263898104429,6.281002177459001,1.1795055521547793
1683645434379326500,6.719326416015625,-1.7070502938613294,4.961517076727747,1.0176233838498592
1683645434389333800,6.729333740234375,-1.5869760537162423,1.3708739271849393,-2.8442805926054713
1683645434399340500,6.739340576171875,1.0788020751729608,-0.5725538039952516,-4.423866828331351
1683645434409348600,6.7493486328125,2.5841011316776274,2.65123639331758,0.19039806869328021
1683645434419355600,6.759355712890625,-0.4109650656789541,2.456962944495678,3.0622827075392007
1683645434429362700,6.76936279296875,0.5499721159614622,0.9519476733684539,3.3865973715081807
1683645434439369700,6.77936962890625,0.6006906419381499,0.7659329343259335,4.381327371026575
1683645434449377800,6.789377685546875,0.6221937409549951,0.5916074640333652,5.182562797141075
1683645434459384600,6.799384521484375,-0.5463794982969761,-0.16233867990076542,5.189053328204155
1683645434469391600,6.8093916015625,-1.5869646555393933,-0.28361469705104825,4.749216096045076
1683645434479399700,6.819399658203125,-1.6767957331120966,-0.6923030499696731,3.393292485232651
1683645434489406500,6.829406494140625,-1.6168937837265431,-1.4344985503554344,1.844336803961545
1683645434499413800,6.839413818359375,-1.323525900554657,-0.8563152160406112,1.7387959699511526
1683645434509421600,6.849421630859375,-0.8119074806459248,0.9313871158987284,2.4761335089117287
1683645434519428600,6.8594287109375,-0.9970470442891121,1.5566332301616668,2.6253938037917015
1683645434529435600,6.869435546875,-0.6512678597480058,1.02448508631289,3.5927012511163947
1683645434539443700,6.879443603515625,-0.7183212152581662,0.2049427268743515,4.074862252002954
1683645434549450800,6.88945068359375,-0.9532055644750594,-0.6399205363035202,3.476509113101661
1683645434559457800,6.899457763671875,-1.1691541809450834,-1.3343518304735422,2.3308333498343825
1683645434569465600,6.909465576171875,-2.451416854675859,-2.141867652031779,1.447981132262945
1683645434579473000,6.919472900390625,-1.853539954984188,-4.086868916139006,-1.1469871381267904
1683645434589479700,6.929479736328125,-1.9569430463135242,-5.617945095717906,-4.71484591667056
1683645434599486500,6.939486572265625,3.9159728357732293,-6.007521920931339,-7.7240090284407135
1683645434609494800,6.949494873046875,4.011320046418905,-6.9610402046173805,-8.806400944799185
1683645434619501600,6.95950146484375,1.0970482182204724,-5.959022386178374,-8.458746029514074
1683645434629508600,6.969508544921875,0.30151856599953025,-4.844432666048407,-7.95915517039895
1683645434639516700,6.9795166015625,-0.22178638271279633,-1.3589298068910836,-6.030298985406756
1683645434649523700,6.989523681640625,-0.019734628039598464,1.5566688859969378,-3.509713755828142
1683645434659530800,6.99953076171875,-2.1676994279026984,3.715188982143998,-2.0741230263218284
1683645434669538800,7.009538818359375,-3.15784677580595,4.991662624144554,-2.2302239808768034
1683645434679545600,7.019545654296875,-2.221711442466825,5.444295917251706,-1.9502546545907853
1683645434689553000,7.029552978515625,-1.4970330402016638,6.747001148095727,-0.40615123565644023
1683645434699560700,7.039560791015625,-1.1177649160999803,7.456137259444594,1.2046274261906742
1683645434709567700,7.049567626953125,-0.7291630733985454,6.365314783871174,2.2145386282280084
1683645434719574800,7.05957470703125,-0.7630114939212799,4.274405165660381,2.644662860146165
1683645434729582800,7.069582763671875,-0.8888871868867426,2.16814366453886,2.7035943570643663
1683645434739589600,7.079589599609375,-1.3661714485824108,-0.1784516103118658,1.627452441011369
1683645434749596700,7.0895966796875,-0.5836919416684657,-1.6682751575261354,0.4582070015862584
1683645434759603700,7.099603759765625,0.5371883299730718,-2.319170092308521,0.1878352324679494
1683645434769611500,7.109611572265625,1.2229602246083318,-1.9675088639914988,0.31579467290490865
1683645434779618800,7.119618896484375,1.5976339335918426,-1.4410913727492094,0.7836300651885568
1683645434789625600,7.12962548828125,1.4364029226720332,-0.5403635990083218,1.2372379024162887
1683645434799633700,7.139633544921875,1.061183124113083,0.39437691897153854,1.7408809595316648
1683645434809640700,7.149640625,0.6848409704606979,0.9572364274263382,2.049296189709753
1683645434819647500,7.1596474609375,0.3452583024721593,1.1750813059717415,1.8722190826214848
1683645434829655600,7.169655517578125,-0.010113251604884863,0.9503390691280365,1.2992214803814888
1683645434839662600,7.17966259765625,-0.3587923953711986,0.5301438182890414,0.8542506847262382
1683645434849669600,7.189669677734375,-0.5968519405581056,0.1459001707971096,0.7040653839558363
1683645434859677400,7.199677490234375,-0.63009238525033,-0.14287410097420214,0.8047256063178181
1683645434869684700,7.209684814453125,-0.48015543321780857,-0.31094635609090326,1.0067027613848447
1683645434879691500,7.21969140625,-0.1898025139529258,-0.38731706358790396,1.1715084159210323
1683645434889699600,7.229699462890625,0.123113242514804,-0.3527560378164053,1.2347425784692168
1683645434899706600,7.23970654296875,0.3781587015550583,-0.253439339017868,1.233338703020662
1683645434909713700,7.249713623046875,0.5387818097095937,-0.19149521628022192,1.1498897277005016
1683645434919720700,7.259720703125,0.5741348626416176,-0.08797814318239688,1.0678918279714882
1683645434929728800,7.269728759765625,0.5520190385539084,0.03034896103441715,0.9960118560224771
1683645434939735600,7.279735595703125,0.5165783073384315,0.050938744598627086,0.872621330936253
1683645434949742600,7.28974267578125,0.42474396365191786,0.024018004447221755,0.6997985202915966
1683645434959750700,7.299750732421875,0.2646036340456456,-0.03791325880885124,0.465895218001306
1683645434969757400,7.30975732421875,0.1509972016751766,-0.10543488941788673,0.21226795519590377
1683645434979764700,7.3197646484375,0.03753573073334992,-0.14315233339369296,-0.0312552622243762
1683645434989772500,7.3297724609375,-0.06571425239350646,-0.11856968080103397,-0.27111674226671456
1683645434999779600,7.339779541015625,-0.13176058628559112,-0.07987082457244396,-0.5138637146174907
1683645435009786600,7.34978662109375,-0.1668482662796974,-0.04415010737180709,-0.7604866516187787
1683645435019794700,7.359794677734375,-0.20020459243655203,0.022860651105642317,-1.0728472584217785
1683645435029801700,7.3698017578125,-0.2619336111187935,0.1830173107922077,-1.3702809297278522
1683645435039808800,7.379808837890625,-0.26273331012912093,0.32237492807805535,-1.6305412008069455
1683645435049816600,7.389816650390625,-0.10207039968715981,0.3262485546410084,-1.8933133085764944
1683645435059823900,7.399823974609375,0.03747252930402756,0.2100923647224903,-2.093874605496228
1683645435069830700,7.40983056640625,0.1310474695801735,0.06172492702901363,-2.2358283767551184
1683645435079838700,7.419838623046875,0.15631518182754517,-0.05940963582396507,-2.254976729339361
1683645435089845800,7.429845703125,0.15030278967022895,-0.1359972009420395,-2.070963393247127
1683645435099852500,7.4398525390625,0.12149636363638565,-0.16957096924185752,-1.628649395710975
1683645435109859600,7.449859619140625,-0.014000431769154964,-0.17650749050676823,-1.1625772137075663
1683645435119867600,7.45986767578125,-0.19231234134938566,-0.16082126107513903,-0.7656997100919485
1683645435129874700,7.469874755859375,-0.32965748630166053,-0.13248831603825093,-0.36721681710630655
1683645435139881700,7.4798818359375,-0.3998515509903431,-0.08812485817670822,0.02135989115387201
1683645435149889800,7.489889892578125,-0.42647301593422887,-0.14157178620398045,0.33643881700485945
1683645435159896600,7.499896484375,-0.3799205235958099,-0.32503800980746744,0.510533255020529
1683645435169903900,7.50990380859375,-0.3130664169847965,-0.5569558373689651,0.6163306941404938
1683645435179911700,7.51991162109375,-0.26322891162633894,-0.7165583703041076,0.6813207604452968
1683645435189918700,7.529918701171875,-0.26454057874679565,-0.7556067706227302,0.7572939930573105
1683645435199925800,7.53992578125,-0.24642273825407027,-0.6343459510415792,0.8674465586468577
1683645435209933800,7.549933837890625,-0.28805004914999005,-0.3863713071703911,0.9715265263244509
1683645435219940600,7.559940673828125,-0.366001888358593,-0.08606149590611457,1.0543342811316252
1683645435229947600,7.56994775390625,-0.46734220193922515,0.13788228403627872,1.1697807153455912
1683645435239955700,7.579955810546875,-0.7094342175126075,0.2762982365578413,1.313207481766492
1683645435249962500,7.58996240234375,-1.0331973850786684,0.3205430364757776,1.3804117169894277
1683645435259969800,7.5999697265625,-1.2920061421751976,0.13891279612779617,1.3028928623706102
1683645435269976600,7.6099765625,-1.4289350710093973,-0.1745423279136419,1.0844251757517456
1683645435279984600,7.619984619140625,-1.3340560623973607,-0.33235447030067444,0.8733204191163182
1683645435289991700,7.62999169921875,-0.9018260903716087,-0.2261789916485548,0.8571125038981438
1683645435299998700,7.639998779296875,-0.2192851404815912,-0.024159458744525908,0.9298518691554665
1683645435310006500,7.650006591796875,0.43490415967106816,0.11888766070902347,0.8731779419057071
1683645435320013800,7.660013916015625,0.8431833472669125,0.17275661354064942,0.7301810913346707
1683645435330020600,7.6700205078125,0.856944161593914,0.17203531352877616,0.5810520216189324
1683645435340028700,7.680028564453125,0.6417383993804454,0.08760463369488716,0.45641251938492056
1683645435350035700,7.69003564453125,0.26986091525303196,-0.013131868773698806,0.40237712394520636
1683645435360042500,7.70004248046875,-0.01740466898838058,-0.10500760391652583,0.3858884920895099
1683645435370050600,7.710050537109375,-0.08455691829575225,-0.01969429602921009,0.48125367678329345
1683645435380057600,7.7200576171875,-0.005623685100674629,0.3220680540859699,0.73788026753515
1683645435390064600,7.730064697265625,0.16355861361715943,0.6950421195447445,1.0032008907437324
1683645435400072400,7.740072509765625,0.2776058120250702,0.906247413945198,1.1599155932828784
1683645435410079700,7.750079833984375,0.2731903336703777,0.8680454013228416,1.217440146012604
1683645435420086500,7.76008642578125,0.20678630891442298,0.5336135402262211,1.018369526042044
1683645435430093800,7.77009375,0.12100773986922576,-0.00876724382340908,0.6312338103704154
1683645435440101600,7.7801015625,-0.025441370047535748,-0.6440156966626643,0.17402283408418298
1683645435450108700,7.790108642578125,-0.1367173501764424,-1.315524964928627,-0.31277254860475656
1683645435460115700,7.80011572265625,-0.03758652933882549,-1.9269161568403244,-0.661507368081063
1683645435470123800,7.810123779296875,0.29471474946988746,-2.179770973968506,-0.7904809539966284
1683645435480130600,7.820130615234375,0.765217479532957,-2.0132798505634066,-0.8708249490387737
1683645435490137600,7.8301376953125,1.0927882226884365,-1.4695160877227782,-1.1548002960957586
1683645435500145700,7.840145751953125,1.0511877997994423,-0.627844898584485,-1.7062551979608833
1683645435510152700,7.850152587890625,0.759609576523304,0.17528993141055105,-2.5982465614080428
1683645435520159700,7.86015966796875,0.4377788383245468,0.6000333470731973,-3.780986273178458
1683645435530167600,7.87016748046875,0.24481296496987343,0.7034715097159147,-4.956013803136348
1683645435540174800,7.8801748046875,0.18247023483607916,0.9351426690399646,-5.536385002884268
1683645435550181600,7.890181640625,0.2576105237552896,1.3462123641371726,-5.063816006207466
1683645435560189700,7.900189697265625,0.5423918899655342,1.8108727796465158,-3.457226612743735
1683645435570196700,7.91019677734375,0.8993500556468963,2.183988883924484,-1.800118745920062
1683645435580203800,7.920203857421875,1.0788695874512195,2.3630565803080796,-0.5531260499477386
1683645435590210600,7.93021044921875,0.8207341995716094,2.3292308830738064,0.45201106955558057
1683645435600219000,7.940218994140625,0.3129975895322859,1.9562778604030608,1.2536392943799495
1683645435610225700,7.9502255859375,-0.25811661011390385,1.286143387621641,1.7932019522689282
1683645435620232700,7.960232666015625,-0.8396095073681324,0.5716694223761558,2.0808507271416485
1683645435630240800,7.97024072265625,-1.2174188840288669,-0.07025602400898932,2.188462376076728
1683645435640247600,7.98024755859375,-1.2553053278960287,-0.6108382342040538,2.2763746144160626
1683645435650254800,7.9902548828125,-0.9575311725892126,-1.0373971748560666,2.453039049050212
1683645435660262700,8.0002626953125,-0.2688894216060638,-0.997457378655672,2.467949325673282
1683645435670269700,8.010269775390626,0.295587970374152,-0.5766086323440075,2.243412402143329
1683645435680276700,8.02027685546875,0.42332485410161313,-0.26723171752691266,1.5278930194981395
1683645435690284800,8.030284912109375,0.14396898353882134,-0.4174970977962017,0.5288223604269325
1683645435700291600,8.04029150390625,-0.12436053916215896,-0.7805459815680981,-0.23094547539800403
1683645435710299000,8.050298828125,-0.25118545914385465,-1.036788687568903,-0.7428909353040158
1683645435720305700,8.0603056640625,-0.24523385726306585,-1.0364122554719448,-1.1802261215142904
1683645435730313700,8.070313720703124,-0.12265019158031791,-0.746718530768156,-1.6233793463535606
1683645435740320800,8.08032080078125,0.19605916319489478,-0.2805535559147596,-2.149797275987267
1683645435750327600,8.09032763671875,0.6813058551371097,0.04399345550537109,-2.7198148395031687
1683645435760335600,8.100335693359375,1.2858546338081358,0.10939853235185146,-3.2612492826133965
1683645435770342700,8.1103427734375,1.8667454735159872,-0.12159925775527954,-3.6784237243264912
1683645435780349700,8.120349609375,2.422574352681637,-0.6838970406740903,-3.682040161257982
1683645435790357500,8.130357421875,2.8664123449146746,-1.2015081251263617,-3.3165205034583805
1683645435800364800,8.14036474609375,3.170512196111679,-0.9520335980862379,-2.760449632230401
1683645435810371600,8.15037158203125,3.0247628319621085,0.002923193970322609,-2.002956317208707
1683645435820379600,8.160379638671875,2.3048960677623747,1.3519512000501155,-1.2681019733659922
1683645435830386700,8.17038671875,1.210318039047718,2.504258364155888,-0.7701106584019959
1683645435840393700,8.180393798828124,0.06698855121221858,3.284155526426434,-0.6761034641884267
1683645435850401500,8.190401611328125,-0.9336813643157481,3.506334050261974,-0.7471328106574714
1683645435860408800,8.200408935546875,-1.3357950150191784,2.9957658700585363,-0.4617236314050853
1683645435870415600,8.21041552734375,-0.983889456552267,2.113596081793308,0.21632015319615602
1683645435880422700,8.220422607421876,-0.33488077390789983,1.4150778105705977,1.018120958108455
1683645435890430700,8.2304306640625,0.26476503515243527,1.049285765570402,1.7784304995946585
1683645435900437500,8.2404375,0.5217278721213341,0.8318716796576976,2.35990366923511
1683645435910444800,8.25044482421875,0.24246318697333336,0.6260895793497562,2.8182828125178814
1683645435920452600,8.26045263671875,-0.5420598815321922,0.4998714296221733,3.1822976187124845
1683645435930459600,8.270459716796875,-1.6798375850260256,0.42914954166710373,3.3169650323554873
1683645435940466700,8.280466796875,-2.7939117568492886,0.3413759811460972,3.0980823351949454
1683645435950474800,8.290474853515626,-3.493254788458347,0.23235154280364512,2.4650673404961823
1683645435960481500,8.3004814453125,-3.6139293325841426,0.21981530183553694,1.320556821615994
1683645435970488800,8.31048876953125,-3.542138354092836,0.31578736638128757,0.06899900968521833
1683645435980496600,8.32049658203125,-3.462786000436544,0.2529682143747806,-0.9439002682521939
1683645435990503400,8.33050341796875,-3.4400141966581343,0.1534329043895006,-1.7977458793088792
1683645436000510700,8.3405107421875,-3.6430180644243952,0.13843874887526034,-2.596203657403588
1683645436010518500,8.3505185546875,-3.777974231880903,0.01414250712096691,-2.9390801062405107
1683645436020525600,8.360525634765626,-3.400210009536147,-0.20309680674672126,-2.530472125081718
1683645436030532600,8.37053271484375,-2.4398095651209353,-0.5682756882846355,-2.059426976971328
1683645436040540700,8.380540771484375,-1.4266630344241857,-1.1698749695003032,-1.4653915551386774
1683645436050547700,8.390547607421874,-0.744857413071394,-1.9947569364011286,-0.2977846767008304
1683645436060554800,8.4005546875,0.13071195401549338,-2.845064436459541,1.4953835194289684
1683645436070561500,8.4105615234375,1.1876865205228329,-3.44002237996459,3.3785955590993164
1683645436080569900,8.42056982421875,2.1253356194257735,-3.6888358127474783,4.0984971023514865
1683645436090576600,8.43057666015625,3.0691145993858573,-3.9329800846755503,3.537328907984495
1683645436100583700,8.440583740234375,3.5888171031594274,-4.0521781265079975,3.3018516343757507
1683645436110591700,8.450591796875,2.865296492627263,-3.7224937521994113,3.930105113761127
1683645436120598500,8.4605986328125,0.811475372838974,-2.7942069404035803,5.3142684383690355
1683645436130605800,8.470605712890626,-1.0417582926750182,-1.335831255376339,5.540899849960208
1683645436140612900,8.48061279296875,-1.631883993718028,0.13441723827421664,3.5605882030189036
1683645436150619600,8.49061962890625,-1.0499760859221219,1.0066285271048545,1.412507083299756
1683645436160627000,8.500626953125,-0.31475568524599074,1.3346195414990185,-0.7169514612749218
1683645436170634800,8.510634765625,-0.016916063487529755,1.6954232766926287,-2.518471890686452
1683645436180641800,8.520641845703125,0.15755203014612196,2.3806769926726816,-3.3914676078930497
1683645436190648800,8.53064892578125,0.24319910003244877,3.2047137409210205,-3.3570743399038907
1683645436200656000,8.54065576171875,0.1917272714704275,3.678260058197379,-2.482515026642382
1683645436210663700,8.55066357421875,-0.11542787564396857,3.493283430030942,-1.2950962171450258
1683645436220671000,8.5606708984375,-0.7466857975423336,2.7902380367726085,-0.7230290276229381
1683645436230677800,8.570677734375,-1.8845687149763106,2.159222106936574,-0.7347934074357152
1683645436240685800,8.580685791015625,-2.873509609699249,1.5160983906775711,-1.1333858982756733
1683645436250692900,8.59069287109375,-2.9062615402221676,0.861160902506113,-1.535591903437674
1683645436260699600,8.60069970703125,-2.2735060732424257,0.39477556290030474,-1.8376076418370006
1683645436270708000,8.6107080078125,-1.3824059595465659,0.17832184645235538,-1.8843863441467283
1683645436280714800,8.62071484375,-0.4712485617280006,0.1658896503806114,-1.4755352018818257
1683645436290721800,8.6307216796875,0.268514158552885,0.19771336014270782,-0.8713646088734268
1683645436300729900,8.640729736328124,0.5989455518364906,0.21295243032872677,-0.4229112317994237
1683645436310737000,8.65073681640625,0.42180619316697116,0.18679449124336242,-0.12883169322684407
1683645436320743700,8.66074365234375,0.008826262267958372,0.24609189886450766,-0.006861994723975658
1683645436330752000,8.670751953125,-0.4084346704185009,0.3855547300904989,-0.02897387328892946
1683645436340758800,8.6807587890625,-0.45057752962112424,0.3618815935581922,-0.20063012437224387
1683645436350765800,8.690765869140625,-0.10277533308612181,0.1804384002149105,-0.4338885528877377
1683645436360772900,8.70077294921875,0.31082185292840003,0.05362286911606788,-0.5910059910088777
1683645436370781000,8.710781005859374,0.6664438015699387,0.05122048414945602,-0.5039613292843104
1683645436380788000,8.7207880859375,0.9298340412378311,-0.022937807995080946,-0.2873381014883518
1683645436390794800,8.730794677734375,1.1032581787765026,-0.08346037349700927,-0.1389420222222805
1683645436400802800,8.740802734375,1.242193186736107,-0.006633738926053047,-0.11243366226404905
1683645436410809900,8.750809814453126,1.3054419623315334,-0.024243629896640775,-0.07869301296472549
1683645436420817000,8.76081689453125,1.2764251266837119,-0.1635463021248579,-0.05513531950563192
1683645436430824700,8.77082470703125,1.1554290955185889,-0.3882441153049469,0.02398556348234415
1683645436440832000,8.78083203125,0.9276689721584319,-0.6983925990164279,0.17270137622207402
1683645436450838800,8.7908388671875,0.6816390326142311,-0.9995698407649993,0.3759396372660994
1683645436460846800,8.800846923828125,0.4573275884032249,-1.2093991706371308,0.6265434605970979
1683645436470854000,8.81085400390625,0.30105573426075277,-1.2754641726970672,0.9735352357983589
1683645436480861000,8.82086083984375,0.23360541532225906,-1.1770441304773092,1.2326587579324841
1683645436490868700,8.83086865234375,0.15848017784170806,-0.7761188127756118,1.3119915301054714
1683645436500876000,8.8408759765625,0.05159582026787102,-0.32102585155665875,1.2032038231283426
1683645436510882800,8.8508828125,-0.07125204930901527,-0.03650573009848594,0.8213795117378234
1683645436520889900,8.860889892578125,-0.13220957216210663,0.12504442977309227,0.338476168051362
1683645436530898000,8.87089794921875,-0.08525602474212646,0.11176233887374401,-0.1188710018351674
1683645436540904700,8.88090478515625,-0.06662263594269752,0.02701660174131393,-0.3386617537513375
1683645436550912000,8.890912109375,-0.04505955036692321,-0.01866729106903076,-0.3882578515693545
1683645436560919800,8.900919921875,0.018421791875362394,-0.04091010253727436,-0.41146629319936034
1683645436570926800,8.9109267578125,0.11503624597787857,-0.07516250075101852,-0.4595458489745855
1683645436580934000,8.920933837890624,0.2271195604342967,-0.1671235760897398,-0.5137167073622345
1683645436590942000,8.93094189453125,0.33193361454010006,-0.3055108870387077,-0.5041662042066455
1683645436600948700,8.94094873046875,0.3191021900177002,-0.4608844041019678,-0.4637316102266311
1683645436610956000,8.9509560546875,0.23308635988421736,-0.6402396852552891,-0.4704863451838493
1683645436620963800,8.9609638671875,0.11654314340949058,-0.8211848659485578,-0.4399757638469338
1683645436630970600,8.970970703125,0.04070150128789246,-0.8389274433881044,-0.28912469264417884
1683645436640978000,8.98097802734375,-0.05800795233249664,-0.6045943713784218,-0.09139993432462215
1683645436650984700,8.990984619140624,-0.1249778673429042,-0.40671968319416046,-0.03685235157907009
1683645436660992800,9.00099267578125,-0.10559848248176276,-0.3355857073068619,-0.09167349056899547
1683645436670999800,9.010999755859375,-0.105162575282529,-0.29872984859645363,-0.12162146958708762
1683645436681006800,9.0210068359375,-0.08422960430383682,-0.28028818297684194,-0.06157733525186777
1683645436691014700,9.0310146484375,0.020633476575464008,-0.37603754468262196,0.039738720670342446
1683645436701022000,9.04102197265625,0.17080189927630127,-0.4442231921583414,0.16809534373134374
1683645436711028700,9.05102880859375,0.22258710463643072,-0.3743137896299362,0.3634913668423891
1683645436721036800,9.061036865234374,0.197626777837798,-0.2830646619528532,0.6203425601303577
1683645436731043800,9.0710439453125,0.14328268177509307,-0.11566752961874008,0.706943569740653
1683645436741050600,9.081050537109375,0.05189509547539055,0.19869769500494003,0.7465384980261326
1683645436751059000,9.091058837890625,-0.04193601151891053,0.5040595289617776,0.764057495842874
1683645436761065700,9.101065673828124,-0.12074475981779396,0.7107301025420427,0.6563835953265428
1683645436771072800,9.11107275390625,-0.25603461620807644,0.7626023285984993,0.4602086967974901
1683645436781080800,9.121080810546875,-0.4316530489206314,0.6851315509051085,0.17395254532694815
1683645436791087900,9.131087890625,-0.5683434928238391,0.561294158834219,-0.10362667095214127
1683645436801094700,9.1410947265625,-0.6796165138106792,0.47075054907798763,-0.3261941941052675
1683645436811102000,9.15110205078125,-0.7505366277515888,0.49305356630086894,-0.49595864009261126
1683645436821109800,9.16110986328125,-0.7909469640731811,0.5874070897340774,-0.6613429712995886
1683645436831116800,9.17111669921875,-0.8148514982085675,0.6326940921813249,-0.9353869991898536
1683645436841123800,9.181123779296875,-0.8006254044573754,0.5772141970217227,-1.302508831489086
1683645436851132000,9.1911318359375,-0.6666331866621971,0.42929391857385635,-1.6593196976542472
1683645436861139000,9.201138916015625,-0.44339265961833296,0.21347207028865814,-1.8134356158718465
1683645436871145700,9.211145751953126,-0.20242230501864103,0.06741174049377441,-1.6758002923339603
1683645436881153800,9.22115380859375,-0.01566394453458488,-0.05087210910320282,-1.3158394377052782
1683645436891160800,9.231160888671875,0.009202639565989374,-0.15446049387156963,-0.9519874208569526
1683645436901167900,9.24116796875,-0.11731361632533371,-0.2846387794017792,-0.6976581472620368
1683645436911175700,9.25117578125,-0.36590255616996437,-0.41090076827108857,-0.5622510211676359
1683645436921183000,9.261182861328125,-0.5984428630113602,-0.4779331540584564,-0.4985872350305319
1683645436931189800,9.271189697265624,-0.7232547261375933,-0.47192602259814737,-0.42775779504775996
1683645436941196800,9.28119677734375,-0.7201637013196944,-0.33924890598952767,-0.36813451647311446
1683645436951204900,9.291204833984375,-0.5874841735582799,-0.1197661971092224,-0.29807518408000466
1683645436961212000,9.3012119140625,-0.4554991308670491,0.16203297495245933,-0.1850149143502116
1683645436971219000,9.311218994140624,-0.3065173972001299,0.42277883759140966,-0.06992050844430923
1683645436981227000,9.32122705078125,-0.13092592555973678,0.5987427227407693,0.08080605959594249
1683645436991233800,9.33123388671875,0.006238017606735229,0.6863666456580162,0.26796529249846934
1683645437001240800,9.34124072265625,0.1250386210868135,0.6944587666988372,0.4961936178922653
1683645437011249000,9.351248779296874,0.21837971607446668,0.6024246261239051,0.6399807420581579
1683645437021255700,9.361255615234375,0.2658580910861492,0.4652583814024925,0.7250394906625152
1683645437031263000,9.371262939453125,0.2902548657178879,0.364241308426857,0.7090531092405319
1683645437041270800,9.381270751953124,0.29329083588030186,0.3260240982353687,0.6554466067373752
1683645437051277800,9.39127783203125,0.30160160464048386,0.3220598707795143,0.6015273850232362
1683645437061284900,9.401284912109375,0.32064182067513464,0.2645078455209732,0.6449053389787673
1683645437071293000,9.41129296875,0.340219760315679,0.08810966060757637,0.8045277456581592
1683645437081299700,9.4212998046875,0.3373345237355679,-0.20037293474078177,0.9867505450718105
1683645437091307000,9.43130712890625,0.27907058734800666,-0.5402449410647153,1.0894811439670622
1683645437101313800,9.441313720703125,0.14344868599176405,-0.8083709770828486,1.1639482097998262
1683645437111321900,9.45132177734375,0.0040378772139549254,-0.8963350917398929,1.1477198363155126
1683645437121329000,9.461328857421876,-0.11029222978856414,-0.8852455424487591,1.0223036506205796
1683645437131335700,9.471335693359375,-0.21385906031224874,-0.7905202630937099,0.8824415909439325
1683645437141344000,9.481343994140625,-0.29463417678065595,-0.6526286267071962,0.7203614158488809
1683645437151351000,9.49135107421875,-0.3861083088526502,-0.6122241356045007,0.5450009034201503
1683645437161358000,9.501358154296875,-0.4279460476288572,-0.5795657285839318,0.40277167622074483
1683645437171366000,9.511365966796875,-0.4281050010502338,-0.4406330587118864,0.27202684284895656
1683645437181373200,9.521373291015625,-0.3940975905735045,-0.24755145002305506,0.1105040093757212
1683645437191380000,9.5313798828125,-0.3758522147109732,-0.08427285892367363,-0.0903606544047594
1683645437201388000,9.541387939453125,-0.3168155403852463,0.0258808757096529,-0.2808566305145621
1683645437211395000,9.55139501953125,-0.24306056834459303,0.1066039331972599,-0.45174072818160055
1683645437221401900,9.56140185546875,-0.18231237739324568,0.1881856533408165,-0.6083689214810729
1683645437231409200,9.5714091796875,-0.16765377397630363,0.22332126412987707,-0.6936991805031896
1683645437241417000,9.5814169921875,-0.1725134889671579,0.23404081106483934,-0.6836389742597937
1683645437251424000,9.591424072265625,-0.17626374487876892,0.18362696712315082,-0.5760904536888003
1683645437261431000,9.60143115234375,-0.20106738327834753,0.08710662104487418,-0.4631710537344217
1683645437271439000,9.611439208984375,-0.20539869048092513,0.033999884757399554,-0.42356998796910045
1683645437281446000,9.62144580078125,-0.14168920203857124,-0.010463526347279548,-0.38311815059334037
1683645437291453200,9.631453125,-0.1031225208222866,0.04381809893846512,-0.32681349504739043
1683645437301461000,9.6414609375,-0.1637069725792855,0.2869061398118734,-0.2740025268360972
1683645437311468000,9.651468017578125,-0.31462014923281967,0.6249871710658073,-0.19355594820231198
1683645437321475000,9.66147509765625,-0.3394529406616464,0.9402239178270101,-0.10235811232104897
1683645437331483100,9.671483154296874,-0.49799394531249996,1.2156056240618227,0.12034925769418477
1683645437341490000,9.681489990234375,-0.726261433672905,1.3006629113614558,0.4311375006139278
1683645437351497000,9.6914970703125,-0.3079249624431133,0.7075438737213611,0.697393066585064
1683645437361504000,9.70150390625,0.7024971117258072,-0.13107611115276813,0.8530439392849802
1683645437371512000,9.711511962890626,1.451718565225601,-0.641483547836542,0.9418711005121468
1683645437381519000,9.72151904296875,1.8909540320992468,-0.7039017178267241,1.0965605808340013
1683645437391526000,9.73152587890625,2.02828745008111,-0.553625231641531,1.2971816451169549
1683645437401534200,9.7415341796875,1.8633470632493494,-0.32660686655938626,1.4421554948493838
1683645437411541000,9.751541015625,1.2944739935934544,-0.08857610907554626,1.311339788198471
1683645437421548000,9.761548095703125,0.448716375391744,-0.04539280090928077,1.1634469822794198
1683645437431556000,9.77155615234375,-0.41306759091615675,-0.15813129133880138,1.1545306853741406
1683645437441563100,9.781563232421876,-0.9710849200367927,-0.360652928546071,1.134993917994201
1683645437451570000,9.79156982421875,-1.0470751037836075,-0.516356700477004,1.020710243949294
1683645437461578200,9.801578125,-0.7425298469066619,-0.564591446813941,0.7908176386050879
1683645437471585000,9.8115849609375,-0.4396645059406757,-0.3988566947340965,0.5313412113800644
1683645437481592000,9.821592041015625,0.025033903491497037,-0.25852818658947946,0.15413257709145545
1683645437491600100,9.83160009765625,0.5719195977449417,-0.2836614588022232,-0.328086291462183
1683645437501607000,9.84160693359375,0.9674702366709709,-0.2668342426419258,-0.9088250093482434
1683645437511614200,9.8516142578125,1.1799953814983368,-0.1376613347619772,-1.608722313839197
1683645437521621000,9.86162109375,1.0862053371667861,0.04188274696171283,-2.2691440786406396
1683645437531629000,9.871629150390625,0.7943827837407589,0.22328151664137838,-2.831335770836472
1683645437541636000,9.881635986328124,0.3438274659514427,0.36046412797570226,-3.227584913420677
1683645437551643100,9.89164306640625,-0.19267361240983008,0.400543624907732,-3.1553432685524223
1683645437561651000,9.90165087890625,-0.7237351300656795,0.40980420520603655,-2.576470198407769
1683645437571658200,9.911658203125,-0.9665829324424267,0.3150438545376062,-1.8200572259686887
1683645437581665000,9.9216650390625,-0.9425894779145717,0.21241291662454603,-1.1119766150221229
1683645437591673000,9.931673095703125,-0.7493278364837169,0.157768303245306,-0.5997054302930832
1683645437601680100,9.94168017578125,-0.47010523691177364,0.06725918028056621,-0.3088374011129141
1683645437611687000,9.95168701171875,-0.29641572643518443,-0.07694412347078323,-0.2800593426570296
1683645437621695000,9.961695068359376,-0.2662707635402679,-0.21317162603735923,-0.40439679320454597
1683645437631702000,9.971701904296875,-0.3418494438767433,-0.2925058595150709,-0.4379577020227909
1683645437641709000,9.981708984375,-0.40666590718030926,-0.33207974501252174,-0.35687048739790916
1683645437651716000,9.991716064453126,-0.4679097726941108,-0.18377894281446933,-0.20079130628332495
1683645437661724200,10.00172412109375,-0.44424248138070105,0.07249474284648895,0.04045212963670492
1683645437671731000,10.01173095703125,-0.38897827479839325,0.2728437121897936,0.2618333656147122
1683645437681738200,10.02173828125,-0.36844518985748287,0.3753665135532617,0.43758565384000536
1683645437691746000,10.03174609375,-0.46935237271785735,0.3620493513405323,0.49757396633476014
1683645437701753000,10.041753173828125,-0.6575649140655994,0.19851181704401968,0.4452469822481274
1683645437711760100,10.051760009765625,-0.7435527602136135,-0.017325813332200048,0.3295663008868694
1683645437721768200,10.061768310546874,-0.6796516581892967,-0.2047457429975271,0.22700024490356444
1683645437731775000,10.07177490234375,-0.5922188739299774,-0.29239947653114795,0.13802359220311045
1683645437741782000,10.081781982421875,-0.41988545423746104,-0.3337742739707231,0.07247136197090148
1683645437751790000,10.0917900390625,-0.1725742427110672,-0.3480874614834785,0.06072773268520832
1683645437761796900,10.101796875,0.13586743708252905,-0.37910803816914557,0.1374596747100353
1683645437771804200,10.11180419921875,0.4019757035374641,-0.4086386685580015,0.23592706320285795
1683645437781811000,10.12181103515625,0.5134662397325038,-0.3736211311906576,0.38870910246819257
1683645437791819000,10.131819091796874,0.52990416431427,-0.29121815779209137,0.5463894351691008
1683645437801826000,10.141825927734375,0.42360301345586776,-0.1754372309267521,0.6208546013057231
1683645437811833000,10.1518330078125,0.22492753028273582,-0.047587096083164214,0.5895066923618316
1683645437821841000,10.1618408203125,0.10877716731680556,0.016841244685649872,0.4845527183286845
1683645437831848200,10.17184814453125,0.09324410088658332,0.04239712622463703,0.3800067405745387
1683645437841855000,10.18185498046875,0.122944808879029,0.03714695061147213,0.3042529959321022
1683645437851863000,10.191863037109375,0.14922610034942627,0.04589782782196998,0.2942474424853921
1683645437861870000,10.2018701171875,0.1517290230810642,0.04990472537577152,0.2746875864908099
1683645437871876900,10.211876953125,0.13422493057250975,0.11356266629397868,0.16320523360222577
1683645437881885000,10.221885009765625,0.06826981862783432,0.2471533906161785,-0.029691666169464587
1683645437891892000,10.23189208984375,-0.014431863722670822,0.37024493275582787,-0.25452421164512634
1683645437901899000,10.24189892578125,-0.05267598018739372,0.46470250108540057,-0.45102030495256185
1683645437911906000,10.251906005859375,-0.08231472885953262,0.535635401442647,-0.6592980214685201
1683645437921914000,10.2619140625,-0.08273089017868042,0.4990554370641708,-0.8999243484035134
1683645437931921000,10.2719208984375,-0.05355853517558425,0.3597527648359537,-1.0919307290762663
1683645437941928200,10.28192822265625,-0.045132104146480556,0.09803133516311645,-1.190698269559443
1683645437951936000,10.29193603515625,-0.06260927211549133,-0.20435586689710616,-1.2046776950731872
1683645437961943000,10.301943115234375,-0.12012162295076996,-0.5045394214332103,-1.1227125285699964
1683645437971950000,10.3119501953125,-0.1738193108687177,-0.684063629412651,-0.9527966914132237
1683645437981958100,10.321958251953125,-0.26205053376303983,-0.6270569630771875,-0.674720047006011
1683645437991965000,10.33196484375,-0.36352234650254245,-0.1856540890365839,-0.334298590105772
1683645438001972000,10.341971923828124,-0.46608021917939185,0.5767366426378489,-0.02337240002006292
1683645438011980000,10.35197998046875,-0.5369605125665664,1.5252414820760487,0.18240882350504398
1683645438021987000,10.361987060546875,-0.5046925296356901,2.494681557515263,0.21756313899457452
1683645438031994000,10.371994140625,-0.38980946492552754,3.2959774816453455,0.13962620509415863
1683645438042002000,10.382001953125,-0.29750176810622214,3.825000186949968,-0.029230770659446716
1683645438052009200,10.39200927734375,-0.28690442277882244,3.9659453656882047,-0.1838388563081622
1683645438062016000,10.40201611328125,-0.3785971295049414,3.6723195622324942,-0.29477877288311716
1683645438072023000,10.41202294921875,-0.5356979452848434,3.0521745705008505,-0.31113457213938234
1683645438082031000,10.422031005859376,-0.8028302210252731,2.2554992919087407,-0.23627193111777303
1683645438092038100,10.4320380859375,-1.3525462433338165,1.4172902259230613,-0.14143237773329018
1683645438102045200,10.442045166015625,-2.168857950288057,0.5889625024825335,-0.12965952235311268
1683645438112053200,10.45205322265625,-3.1107693828105925,-0.18862813641130924,-0.26753128499537704
1683645438122060000,10.46206005859375,-3.869986160624027,-0.8499117787390947,-0.631160891264677
1683645438132067000,10.472067138671875,-4.09462026091814,-1.3717150541841983,-1.2324562210977077
1683645438142075400,10.482075439453125,-3.731088562065363,-1.7592168266892432,-1.7264926609560847
1683645438152082200,10.492082275390626,-2.915761189973354,-2.172211936891079,-1.9513398194789886
1683645438162089500,10.50208935546875,-1.7992659284830093,-2.6598791339784857,-1.9739953034013509
1683645438172097300,10.51209716796875,-0.8283470857281238,-3.1532045029580593,-1.9553981549590824
1683645438182104300,10.522104248046874,-0.1524877690264955,-3.591376724514365,-1.958950294482708
1683645438192111400,10.532111328125,0.31512974272277205,-3.994471787470579,-2.0199080365315076
1683645438202118400,10.542118408203125,0.6448094773888587,-4.210964666885137,-2.215143900644779
1683645438212126200,10.552126220703125,0.9994844275038689,-4.085891595539451,-2.276860936628282
1683645438222133500,10.562133544921876,1.221520985585451,-3.7767818072259423,-2.14854230749011
1683645438232140300,10.572140380859375,1.348559804046154,-3.366591233050823,-1.9189166825190185
1683645438242148400,10.5821484375,1.450530816745758,-2.742311917993426,-1.537498759972304
1683645438252155400,10.5921552734375,1.4106687619566916,-2.005218709182739,-1.1272159774690866
1683645438262162200,10.602162109375,1.157713407063484,-1.1486883890867232,-0.6542816546112299
1683645438272170200,10.612170166015625,0.756686967074871,-0.2485954061180353,-0.03619987901970744
1683645438282177300,10.62217724609375,0.15884265447854995,0.6240203718602657,0.6098714349985123
1683645438292184300,10.632184326171876,-0.6629156274437904,1.318197399008274,1.176947684365511
1683645438302192000,10.642192138671875,-1.479223827266693,1.791295387995243,1.6276706138066948
1683645438312199400,10.652199462890625,-2.2148352730870244,2.051485954838991,1.9369322316810487
1683645438322206200,10.662206298828124,-2.8306033649086952,2.0218752449512483,2.027662596181035
1683645438332213500,10.672213623046876,-3.159961576002836,1.8622598525345324,1.8122696408323942
1683645438342221300,10.68222119140625,-3.146284932827949,1.7032915258497,1.3283251175299287
1683645438352228400,10.692228271484375,-3.006805442728102,1.5657833358228206,0.8464099080979823
1683645438362235400,10.7022353515625,-2.689375569836795,1.4871142882555721,0.4211282939054072
1683645438372243500,10.712243408203125,-2.2245371674120427,1.3596873472601174,0.09653203651607035
1683645438382250200,10.722250244140625,-1.675755430278927,1.2113760236680506,-0.09728592362329364
1683645438392257300,10.73225732421875,-1.0386322696089745,1.060600940310955,-0.1707327064976096
1683645438402265300,10.742265380859376,-0.40578664012774823,0.9251011674970387,-0.18801804168894887
1683645438412272000,10.752272216796875,0.1080054705582559,0.8407301088958978,-0.14631649651303885
1683645438422279400,10.762279541015625,0.38186581244468687,0.8003823164165019,-0.15297522374987602
1683645438432287200,10.772287353515624,0.434283397424221,0.6626017391890286,-0.18467559939324854
1683645438442294300,10.782294189453125,0.2743405266188085,0.5640782365947962,-0.26102453344985843
1683645438452301300,10.79230126953125,-0.03067015581279993,0.49946752499639985,-0.3897536430850625
1683645438462308400,10.802308349609374,-0.3257331524647772,0.5245651413738728,-0.5628999865956604
1683645438472316200,10.812316162109376,-0.49428822266235944,0.6314513986438512,-0.7299595575384795
1683645438482323500,10.822323486328125,-0.582801349504292,0.7057511450856924,-0.8336421964615582
1683645438492330200,10.832330322265625,-0.5635211872339249,0.6764005474388599,-0.7867544808194041
1683645438502338300,10.84233837890625,-0.55903556625247,0.5002501998066902,-0.6365653806567192
1683645438512345300,10.852345458984376,-0.48281990318670864,0.26496318807303904,-0.2954449817068875
1683645438522352000,10.86235205078125,-0.33695684952959415,0.15129764592647552,0.0982354794330895
1683645438532360200,10.872360107421875,-0.14515519764870405,0.0954758054614067,0.44519130653813477
1683645438542367200,10.8823671875,0.09137348470911383,0.055578679358959195,0.7694703146718442
1683645438552374300,10.892374267578125,0.30704701056480405,0.0386427421271801,1.0158353313893078
1683645438562382300,10.90238232421875,0.4618972344063222,0.06849018338024616,1.1799823758862913
1683645438572389400,10.912389404296874,0.5610032130636274,0.10486731866300106,1.2669580640278757
1683645438582396200,10.922396240234375,0.6316928061842918,0.0707715723156929,1.279189038439095
1683645438592403500,10.932403564453125,0.6485431109592318,0.11890461184382438,1.3179247195467352
1683645438602411300,10.942411376953125,0.6763759975194931,0.1990858175396919,1.3877391372680663
1683645438612418000,10.95241796875,0.7157330253958701,0.2640069102615118,1.397072490541637
1683645438622425300,10.96242529296875,0.7432055542111397,0.20172376482784746,1.2765958070755004
1683645438632433200,10.97243310546875,0.7289948041595519,-0.00499532406926155,1.0368569304995239
1683645438642440200,10.982440185546874,0.7310252870738506,-0.19062252509891986,0.6907064284279942
1683645438652447200,10.992447265625,0.750728350931406,-0.1964332572042942,0.33682430919110773
1683645438662455300,11.002455322265625,0.8076806567311287,0.0043874213039875026,0.034333354495465755
1683645438672462300,11.01246240234375,0.9456230734568088,0.3227349935621023,-0.1457267139263451
1683645438682469400,11.022469482421876,1.1698186362031846,0.6592249562323093,-0.22561755837351083
1683645438692477200,11.032477294921875,1.4167397524334489,1.0321750562936067,-0.05659034061953425
1683645438702484500,11.042484375,1.5256405643962323,1.5276929668813943,0.22430808321014045
1683645438712491300,11.0524912109375,1.5928339859642087,2.1886446007758376,0.5990821838282049
1683645438722499300,11.062499267578126,1.6949695415757595,3.1627251954972744,0.958357540410757
1683645438732506400,11.07250634765625,1.775446661478281,4.3004730883747335,1.356510909181088
1683645438742513200,11.08251318359375,1.7260428713619709,5.403572861719131,1.768173601735383
1683645438752520400,11.0925205078125,1.5154174226760864,6.176532333680987,2.1304447791330516
1683645438762528300,11.1025283203125,1.144627130997181,6.325598859554529,2.2782462535068393
1683645438772535300,11.112535400390625,0.5298339486222714,5.890109008949994,1.988569041546434
1683645438782542300,11.122542236328124,-0.2038659644883126,5.249514518907666,1.2995439903341233
1683645438792550400,11.13255029296875,-0.818922181713581,4.911899936121702,0.6308180691763758
1683645438802557200,11.14255712890625,-1.1819629552442579,4.775902735179662,0.08166603742614388
1683645438812564500,11.152564453125,-1.2945464743077755,4.635377243158221,-0.33157837136164303
1683645438822572300,11.162572265625,-1.1585761613726615,4.465723856329918,-0.575576366686821
1683645438832579300,11.172579345703125,-0.8816448876082896,4.268260087034106,-0.6443387180719524
1683645438842586400,11.18258642578125,-0.45595279291868207,4.015383058074116,-0.45634705293327565
1683645438852593200,11.19259326171875,-0.06855853590872138,3.670509297940135,-0.06126242408379912
1683645438862601200,11.202601318359376,0.20809446890354155,3.269797915250063,0.38410365449935197
1683645438872608300,11.212608154296875,0.4190636164605617,2.911190228796005,0.8217953990623355
1683645438882615300,11.222615234375,0.5581494310677051,2.6230221062242984,1.1840960948154329
1683645438892623000,11.232623046875,0.5853022264093161,2.4794243671506644,1.472608500780165
1683645438902630400,11.24263037109375,0.49284898363947865,2.4890777461588383,1.652733012740314
1683645438912637200,11.25263720703125,0.37049982083234934,2.6502877142906187,1.6768536007791757
1683645438922645200,11.262645263671875,0.09965162984132767,2.845684029662609,1.5479709080174564
1683645438932652300,11.27265234375,-0.2651782190632075,2.983447655755281,1.2884776757881045
1683645438942659300,11.282659423828125,-0.46935639130584894,3.08940101608932,0.9160220812454819
1683645438952667100,11.292667236328125,-0.47350949239730833,3.049270081230998,0.48646863495260473
1683645438962674400,11.30267431640625,-0.2449662558354437,2.782430577892065,0.07278557901922612
1683645438972681200,11.31268115234375,0.22886019355654716,2.3400889616966247,-0.2676762464240193
1683645438982688300,11.322688232421875,0.7812076603472232,1.8191010942876338,-0.3004597411289811
1683645438992696300,11.3326962890625,1.373411482838541,1.3407973533511162,0.2419619594529271
1683645439002703000,11.342703125,1.979112792545557,1.111536177778244,1.0331339644536375
1683645439012710400,11.35271044921875,2.3870111641302705,1.088807044097781,1.6912009828224777
1683645439022718200,11.36271826171875,2.490273970206082,1.1349638151168822,2.014817435394227
1683645439032725200,11.372725341796874,2.3813915706828235,1.2195382873356342,2.0513973997727035
1683645439042732300,11.382732177734376,2.188875194661319,1.2129472185075283,1.9643410476103425
1683645439052740400,11.392740234375,2.070466549640894,1.1189619438648224,2.009960350751877
1683645439062747100,11.4027470703125,1.9752292291104792,1.00825934317708,2.115921602131426
1683645439072754400,11.41275439453125,1.9139196048840879,0.808062349525094,2.2510241923213004
1683645439082762200,11.42276220703125,1.8565411826267837,0.5356517680555581,2.1985645217657086
1683645439092769300,11.432769287109375,1.8970903428971766,0.2539689158499241,1.9263102999016641
1683645439102776300,11.4427763671875,2.000647455744445,-0.058278585967421526,1.5465984506204724
1683645439112783000,11.452783203125,2.1847043387174607,-0.37398587284982204,1.1546005357399582
1683645439122791200,11.462791259765625,2.3686072001725433,-0.6188292329579591,0.8171797219604253
1683645439132798200,11.472798095703125,2.3858394900023936,-0.710074853503704,0.5638610867127776
1683645439142805200,11.48280517578125,2.2672794538125394,-0.6201333012938499,0.42140564954206344
1683645439152813300,11.492813232421875,1.956376352341473,-0.3793108672648668,0.35621655353382226
1683645439162820400,11.5028203125,1.662527846045792,-0.15143208596110344,0.2671723885551095
1683645439172827100,11.5128271484375,1.6319880386143921,-0.14237433475852013,0.22964272223636506
1683645439182835500,11.52283544921875,1.8299211789876222,-0.3433434818267822,0.23928806406855582
1683645439192842200,11.53284228515625,2.043265238982439,-0.5811234794199467,0.3990009255103767
1683645439202849300,11.542849365234375,2.148219651407003,-0.6843950533241033,0.7835286506406962
1683645439212856300,11.552856201171876,2.114358882859349,-0.6451701273947954,1.1753911025732755
1683645439222864400,11.562864501953126,1.8299433908194302,-0.5941559794723987,1.4759494817711412
1683645439232871200,11.57287109375,1.4881518146097659,-0.6153881525933742,1.4888795443624256
1683645439242878200,11.582878173828124,1.2943258172944188,-0.7158949379593134,1.3221896835148335
1683645439252886300,11.59288623046875,1.194780570437014,-0.8399743220925331,1.1430645578555763
1683645439262893300,11.602893310546875,1.2792743786349892,-0.9689391401797532,1.046218633084744
1683645439272900400,11.612900390625,1.4111860638290643,-1.1287637914329767,1.0212922816209495
1683645439282908200,11.622908203125,1.4660042802095412,-1.3912135353803634,1.1925342528149485
1683645439292915500,11.63291552734375,1.408663267353177,-1.6589514488637447,1.3669827649652957
1683645439302922200,11.642922119140625,1.3188824586629866,-1.8654045803010462,1.4838444728046656
1683645439312930300,11.652930419921875,1.0898682435885072,-1.9997990222215651,1.520631065671146
1683645439322937300,11.662937255859376,0.7285013215541839,-1.9605144750595092,1.3949617819979787
1683645439332944400,11.6729443359375,0.49328912862241264,-1.7714076152205467,1.1452584146380425
1683645439342951400,11.682951416015625,0.46122079644948244,-1.7404080813229084,0.7878764705866574
1683645439352959500,11.69295947265625,0.5732447088688611,-1.8607459408402443,0.48632221221923827
1683645439362966300,11.70296630859375,0.8146890741884708,-1.986197782370448,0.45315644019842144
1683645439372973300,11.712973388671875,1.0649620581299066,-2.0253332764506338,0.64861179228127
1683645439382981400,11.7229814453125,1.176402909964323,-1.9536364059835671,0.8034829127803444
1683645439392988200,11.73298828125,1.1354109743624925,-1.8289537952601909,0.8550205000549554
1683645439402995500,11.742995361328125,1.0453700534313917,-1.6632523609280585,0.7794576018095016
1683645439413003300,11.753003173828125,0.9480196862697601,-1.5334318027943372,0.6294336290806531
1683645439423010300,11.76301025390625,0.8899345770478249,-1.5031810414373874,0.4076876514434814
1683645439433017300,11.773017333984376,0.8919675441801548,-1.6348282304763793,0.2148199777662754
1683645439443024400,11.7830244140625,0.8659069279894233,-1.8752648800581693,0.11979805355221032
1683645439453032200,11.7930322265625,0.8209101406604051,-2.116605200481415,0.06494564264118671
1683645439463039500,11.80303955078125,0.8169903368681669,-2.2831197047621012,0.19248247375190256
1683645439473046300,11.81304638671875,0.7777285860598087,-2.4269781405985356,0.3837853823304176
1683645439483054300,11.823054443359375,0.7833657151639462,-2.5870325089544055,0.6076853231310844
1683645439493061400,11.833061279296874,0.7968886290818452,-2.7420839544564486,0.8073147460281849
1683645439503068200,11.843068115234376,0.7720850272148847,-2.800107104358077,0.8666992474108934
1683645439513076200,11.853076171875,0.7412702022343873,-2.6582114930272103,0.8235922193512321
1683645439523083300,11.863083251953125,0.7432187059536576,-2.414981413334608,0.7304527478829026
1683645439533090300,11.87309033203125,0.8389943711444735,-2.255131627640128,0.6550389027193189
1683645439543098000,11.88309814453125,1.0359861390143632,-2.4033780693024394,0.5822393317073583
1683645439553105400,11.89310546875,1.3327192608356475,-2.9047791927099227,0.5049900878101587
1683645439563112200,11.9031123046875,1.5640399992868304,-3.521991638121009,0.5072811213567853
1683645439573119500,11.913119384765626,1.6432254719436168,-3.9600726742625234,0.4876093294203281
1683645439583127300,11.923127197265625,1.4560808520883322,-4.077901181307435,0.5012783738106489
1683645439593134300,11.93313427734375,1.1197715066820382,-3.908374051207304,0.5493304570570587
1683645439603141400,11.943141357421876,0.8170803532391786,-3.5811844163239,0.5134799759969115
1683645439613149400,11.9531494140625,0.7197925299197435,-3.3049522307395933,0.3727265204384923
1683645439623156200,11.96315625,0.8273594629302621,-3.2151872041404244,0.2775628496661782
1683645439633163300,11.973163330078124,1.062266243174672,-3.3814749139279123,0.35140813033878804
1683645439643171300,11.98317138671875,1.2981883379414676,-3.709433195096254,0.5570291948661208
1683645439653178000,11.99317822265625,1.494341316899657,-4.056917429989576,0.8281979595810175
1683645439663185400,12.003185302734375,1.601754812914133,-4.373870333018899,1.0267617990732192
1683645439673192200,12.013192138671876,1.5762871941804886,-4.589581122145057,1.035308093622327
1683645439683200300,12.0232001953125,1.4392320086181163,-4.6261032188564535,0.8735156494274735
1683645439693207300,12.033207275390625,1.253966626638174,-4.456091520109773,0.6647013418167829
1683645439703214300,12.04321435546875,1.0674608892083168,-4.187483253532648,0.47187896858602757
1683645439713222100,12.05322216796875,1.08929395083189,-4.026252827134728,0.2690539645180106
1683645439723229400,12.0632294921875,1.3202487785801291,-4.123073032942414,0.17098054377883673
1683645439733236200,12.073236328125,1.5350000750243662,-4.398264185041189,0.28718115736097094
1683645439743244300,12.083244384765624,1.5493886658608913,-4.6360307386308905,0.4706956040203571
1683645439753251300,12.093251220703126,1.2935486954420805,-4.500304171323776,0.5858870405599474
1683645439763258000,12.103258056640625,0.96115886156708,-3.936079804256558,0.6509507566228508
1683645439773265400,12.113265380859374,0.6608385289087891,-3.338343628209829,0.5113692674532533
1683645439783273200,12.123273193359376,0.27421207793354985,-2.9215538019001484,0.193395496943593
1683645439793280300,12.1332802734375,0.08397270693331957,-2.6846581859260796,-0.1844794922992587
1683645439803287300,12.143287353515625,0.3289300488099456,-2.6509727739453313,-0.2462009121969342
1683645439813295400,12.15329541015625,0.7826745180293917,-2.9405332276582716,0.23915508533865212
1683645439823302100,12.16330224609375,0.8675584945887327,-3.390252679145336,1.0887491764307022
1683645439833309400,12.173309326171875,0.36925036876052614,-3.5511288852781053,1.9650021418675778
1683645439843317200,12.183317138671875,-0.4997700150743127,-3.115675275030732,2.1739842072606086
1683645439853324300,12.19332421875,-1.1384493191450833,-2.4113562085747717,1.557213075876236
1683645439863331300,12.203331298828125,-1.594313264736533,-1.7653800254940986,0.5454144526571035
1683645439873338000,12.213338134765625,-1.857055269628763,-1.1081938816130161,-0.5450844900503754
1683645439883346400,12.223346435546874,-1.3312792911604046,-0.5583966838270426,-1.1240819172270595
1683645439893353200,12.233353271484376,-0.1407639769524336,-0.3558896596670151,-1.1002259714737535
1683645439903360300,12.2433603515625,0.9705185183256864,-0.4175602261602878,-0.5515145230978727
1683645439913368300,12.253368408203125,1.3229343644022942,-0.5739093102574349,0.0961947673857212
1683645439923375400,12.263375244140626,0.9617682256370782,-0.5323503884226083,0.922457959511876
1683645439933382400,12.27338232421875,0.2239925875201821,-0.07598433852791786,1.5516605563156305
1683645439943390500,12.283390380859375,-0.46382484146803615,0.5277718284606934,1.1734908219099045
1683645439953397200,12.293397216796874,-1.0944839206904173,0.9548778816014528,0.1528217867538333
1683645439963404300,12.303404296875,-1.4037345787793396,0.7076105092167854,-1.0226748220205306
1683645439973411300,12.313411376953125,-1.1039607740879058,-0.06369418127536773,-1.775508036276698
1683645439983419100,12.323419189453125,-0.30379706885814667,-0.7827788551867008,-1.6326853732287883
1683645439993426400,12.333426513671874,0.3392261096358299,-1.211916121894121,-0.8638333365857601
1683645440003433200,12.34343310546875,0.4851835635781288,-1.0265034403979778,-0.03208572169914842
1683645440013441300,12.353441162109375,0.32293226969987154,0.06949380746483802,0.3970087287798524
1683645440023448300,12.3634482421875,1.7861767298072575,1.7487895406991243,-2.4926912604808806
1683645440033455400,12.373455322265626,-0.004223755174875259,4.136148203092813,0.3317196795284748
1683645440043463200,12.383463134765625,-3.3462361350253222,1.5487883618801832,0.5864810609303415
1683645440053470500,12.393470458984375,-2.5294606099516153,0.9375357016563415,-2.726926132813096
1683645440063477200,12.403477294921874,-1.6202581455931067,1.24235509929955,-2.5249729431435464
1683645440073484300,12.413484375,-0.5960302489116788,0.6843553058356047,-2.4238472952269015
1683645440083492400,12.423492431640625,0.3103153647109866,0.27872517144382,-1.6989885679587722
1683645440093499100,12.4334990234375,0.8305357548788189,0.34565526590049267,-0.6077946287244558
1683645440103506400,12.44350634765625,0.9371671606048941,1.0703764843940735,-0.08309884670823812
1683645440113514200,12.45351416015625,0.54640930891335,2.0227040969908234,-0.05826484970301389
1683645440123521300,12.463521240234375,-0.13419921160936354,2.4202713364362713,-0.407248383243382
1683645440133528300,12.4735283203125,-0.60608957837224,2.5991227597206827,-1.3852607644557953
1683645440143536400,12.483536376953126,-0.8535799458578228,2.1621306878596545,-2.2481661725416777
1683645440153543400,12.49354345703125,-0.820358351996541,1.5340508114755154,-2.7351982865959403
1683645440163550500,12.503550537109374,-0.593695814614743,0.9793751939982175,-2.1225845671519634
1683645440173557500,12.5135576171875,-0.35927053427696226,0.764044344100356,-0.8132330301612615
1683645440183565300,12.5235654296875,-0.13260054424107073,0.8924328236043453,0.4090273756146431
1683645440193572600,12.533572509765625,-0.12349077059030532,1.307553839918971,1.3181699264794586
1683645440203579400,12.543579345703124,-0.3490207968108356,2.061308845195174,1.7208970329061148
1683645440213587500,12.55358740234375,-0.7601077353037893,2.6934388737529513,1.5084946376755832
1683645440223594500,12.563594482421875,-1.1599445271164177,2.705224588614702,0.6692579822078347
1683645440233601300,12.573601318359374,-1.3738548426918684,2.344299857389927,-0.4084527905970812
1683645440243609300,12.583609375,-1.3555148838810622,1.687825076648593,-1.1934589664444326
1683645440253616400,12.593616455078125,-1.0561614965587853,1.0288614017009734,-1.444501181192696
1683645440263623400,12.60362353515625,-0.4945991883076727,0.5939426289826631,-1.163896187351644
1683645440273630500,12.61363037109375,0.2529642688520253,0.5428799657434225,-0.5425961803659797
