time,seconds_elapsed,z,y,x
1683586964504694800,0.01069482421875,0.43379202485084534,-0.782493531703949,0.6533025503158569
1683586964514700500,0.020700439453125,0.41055676341056824,-0.7100078463554382,0.5421960353851318
1683586964524707800,0.030707763671875,0.364247590303421,-0.6058098077774048,0.4183928668498993
1683586964534714600,0.040714599609375,0.28154388070106506,-0.49647775292396545,0.277105450630188
1683586964544721700,0.0507216796875,0.17365896701812744,-0.38224226236343384,0.11375726759433746
1683586964554727700,0.060727783203125,0.06000271812081337,-0.2547779381275177,-0.06523098051548004
1683586964564734700,0.070734619140625,-0.019802900031208992,-0.07647505402565002,-0.24104274809360504
1683586964574741500,0.080741455078125,-0.06342200189828873,0.17739653587341309,-0.40113869309425354
1683586964584748800,0.090748779296875,-0.10461178421974182,0.44503918290138245,-0.5519564747810364
1683586964594754800,0.1007548828125,-0.16561973094940186,0.631780743598938,-0.7036682367324829
1683586964604761600,0.11076171875,-0.23860792815685272,0.716963529586792,-0.8431989550590515
1683586964614768600,0.1207685546875,-0.3326782286167145,0.7048649191856384,-0.9766955375671387
1683586964624775700,0.130775634765625,-0.4447544515132904,0.6278127431869507,-1.0960345268249512
1683586964634782700,0.14078271484375,-0.5745137929916382,0.5645669102668762,-1.1711498498916626
1683586964644788700,0.150788818359375,-0.7428377866744995,0.519905686378479,-1.1867035627365112
1683586964654795500,0.16079541015625,-0.8626499772071838,0.48253676295280457,-1.1284685134887695
1683586964664802800,0.170802734375,-0.8487871289253235,0.5478478670120239,-1.0015547275543213
1683586964674809600,0.1808095703125,-0.7421663999557495,0.6644400358200073,-0.858064591884613
1683586964684815600,0.190815673828125,-0.6094837188720703,0.6981117129325867,-0.7308424115180969
1683586964694823000,0.200822998046875,-0.5180755257606506,0.5758506059646606,-0.6323657035827637
1683586964704829700,0.21082958984375,-0.48755866289138794,0.38311633467674255,-0.5485198497772217
1683586964714836500,0.22083642578125,-0.476769357919693,0.21948139369487762,-0.46772488951683044
1683586964724843800,0.23084375,-0.4403671324253082,0.1083197221159935,-0.3867107331752777
1683586964734849800,0.240849853515625,-0.3794774115085602,-0.008635754697024822,-0.31983551383018494
1683586964744856600,0.250856689453125,-0.3178212344646454,-0.12038199603557587,-0.277469664812088
1683586964754863600,0.260863525390625,-0.24846535921096802,-0.2576182782649994,-0.2683774530887604
1683586964764870700,0.27087060546875,-0.15689335763454437,-0.4650939702987671,-0.2669699788093567
1683586964774876700,0.280876708984375,-0.09270636737346649,-0.49899160861968994,-0.23403461277484894
1683586964784883700,0.2908837890625,-0.1396094113588333,-0.5260927677154541,-0.20947600901126862
1683586964794890800,0.300890869140625,-0.1906220018863678,-0.5727066993713379,-0.23754407465457916
1683586964804897800,0.310897705078125,-0.22797124087810516,-0.5781816244125366,-0.2695659101009369
1683586964814903800,0.32090380859375,-0.24184846878051758,-0.5388181805610657,-0.2883855700492859
1683586964824910600,0.33091064453125,-0.24471484124660492,-0.4474853575229645,-0.31121498346328735
1683586964834918000,0.34091796875,-0.24815243482589722,-0.33801689743995667,-0.3682577610015869
1683586964844924700,0.350924560546875,-0.24863314628601074,-0.28680112957954407,-0.44788360595703125
1683586964854931700,0.360931640625,-0.21423175930976868,-0.26966190338134766,-0.5227006077766418
1683586964864937700,0.370937744140625,-0.15814265608787537,-0.24948634207248688,-0.5802733302116394
1683586964874944800,0.38094482421875,-0.11328677833080292,-0.20630203187465668,-0.6062870621681213
1683586964884951600,0.39095166015625,-0.09076868742704391,-0.2038220912218094,-0.5636796355247498
1683586964894958800,0.400958740234375,-0.08134078979492188,-0.30178606510162354,-0.477552205324173
1683586964904964600,0.410964599609375,-0.08287397772073746,-0.34087780117988586,-0.4041951894760132
1683586964914971600,0.4209716796875,-0.12199264019727707,-0.21414370834827423,-0.4028562605381012
1683586964924978700,0.430978759765625,-0.1905975341796875,-0.014214079827070236,-0.49089130759239197
1683586964934985700,0.44098583984375,-0.2675008177757263,0.17819397151470184,-0.6523317694664001
1683586964944991500,0.450991455078125,-0.3144398331642151,0.3826752007007599,-0.817920446395874
1683586964954998800,0.460998779296875,-0.32809388637542725,0.46736863255500793,-0.9398943781852722
1683586964965005600,0.471005615234375,-0.2916969954967499,0.3440338969230652,-1.0275863409042358
1683586964975012900,0.481012939453125,-0.2742609977722168,0.04277241230010986,-1.0533232688903809
1683586964985019600,0.49101953125,-0.30613982677459717,-0.26865020394325256,-1.0143707990646362
1683586964995025700,0.501025634765625,-0.3408344089984894,-0.534994900226593,-0.9569607973098755
1683586965005032700,0.51103271484375,-0.3583316504955292,-0.7012933492660522,-0.8815829753875732
1683586965015039700,0.521039794921875,-0.3520132899284363,-0.7686793208122253,-0.7903364300727844
1683586965025046500,0.531046630859375,-0.3176550567150116,-0.7627308368682861,-0.6955840587615967
1683586965035052800,0.541052734375,-0.2574779987335205,-0.7496428489685059,-0.6182188987731934
1683586965045059600,0.5510595703125,-0.18841291964054108,-0.7482521533966064,-0.5708564519882202
1683586965055066600,0.561066650390625,-0.09937544912099838,-0.8582696318626404,-0.5712164044380188
1683586965065073700,0.57107373046875,0.004981848411262035,-1.1375763416290283,-0.6047602295875549
1683586965075080700,0.581080810546875,0.07728292793035507,-1.5809177160263062,-0.6480663418769836
1683586965085086500,0.59108642578125,0.07759744673967361,-2.014887571334839,-0.664771556854248
1683586965095093500,0.601093505859375,0.01902920752763748,-2.2975704669952393,-0.6727181673049927
1683586965105100300,0.611100341796875,-0.1055888831615448,-2.4883508682250977,-0.6823270916938782
1683586965115107600,0.621107666015625,-0.24729621410369873,-2.6250834465026855,-0.7116413712501526
1683586965125113600,0.631113525390625,-0.3151274621486664,-2.672852039337158,-0.7716906070709229
1683586965135120400,0.641120361328125,-0.2766168415546417,-2.6829891204833984,-0.9434653520584106
1683586965145127400,0.65112744140625,-0.18372926115989685,-2.7294023036956787,-1.214979648590088
1683586965155134500,0.661134521484375,-0.13562774658203125,-2.8231234550476074,-1.5226022005081177
1683586965165140500,0.671140380859375,-0.12679164111614227,-3.0124616622924805,-1.818282127380371
1683586965175147500,0.6811474609375,-0.093727707862854,-3.134753704071045,-2.0583086013793945
1683586965185154600,0.691154541015625,-0.02021859958767891,-3.076338529586792,-2.1269290447235107
1683586965195161600,0.70116162109375,0.05395549163222313,-2.8604540824890137,-2.0966720581054688
1683586965205168400,0.71116845703125,0.11822608858346939,-2.49684739112854,-1.981858730316162
1683586965215174400,0.72117431640625,0.19119247794151306,-1.9802682399749756,-1.7890316247940063
1683586965225181700,0.731181640625,0.27099621295928955,-1.3932822942733765,-1.5312261581420898
1683586965235188500,0.7411884765625,0.3654758334159851,-0.881861686706543,-1.2177071571350098
1683586965245195300,0.7511953125,0.4756801128387451,-0.5481548309326172,-0.8720624446868896
1683586965255201500,0.761201416015625,0.588748574256897,-0.38868701457977295,-0.5630488395690918
1683586965265208600,0.77120849609375,0.7151955366134644,-0.23855344951152802,-0.346490740776062
1683586965275215400,0.78121533203125,0.8583568930625916,0.017245661467313766,-0.23282766342163086
1683586965285222700,0.79122265625,1.0040366649627686,0.28355535864830017,-0.2052229344844818
1683586965295228400,0.801228515625,1.1453481912612915,0.5704228281974792,-0.23778946697711945
1683586965305235500,0.8112353515625,1.2721055746078491,0.873107373714447,-0.3191508948802948
1683586965315242500,0.821242431640625,1.3633180856704712,1.1100224256515503,-0.4217478930950165
1683586965325249500,0.83124951171875,1.4099433422088623,1.1871241331100464,-0.5238678455352783
1683586965335256600,0.841256591796875,1.4111160039901733,1.2141587734222412,-0.5835666060447693
1683586965345262600,0.8512626953125,1.3950130939483643,1.23444402217865,-0.5874971747398376
1683586965355269400,0.861269287109375,1.3412349224090576,1.2590534687042236,-0.5671408176422119
1683586965365276700,0.871276611328125,1.2270643711090088,1.3049365282058716,-0.5461809635162354
1683586965375283500,0.881283447265625,1.068195104598999,1.3740007877349854,-0.512281596660614
1683586965385289500,0.89128955078125,0.918094277381897,1.4183086156845093,-0.47887247800827026
1683586965395296500,0.901296630859375,0.7959672808647156,1.3916066884994507,-0.44355934858322144
1683586965405303600,0.911303466796875,0.7377793192863464,1.2360327243804932,-0.3919757604598999
1683586965415310300,0.921310302734375,0.724571704864502,0.9096293449401855,-0.34223610162734985
1683586965425316600,0.931316650390625,0.7233508825302124,0.48824167251586914,-0.3442334532737732
1683586965435323400,0.941323486328125,0.7243069410324097,0.06694060564041138,-0.4078807532787323
1683586965445330400,0.951330322265625,0.7029755711555481,-0.2977848947048187,-0.4778854250907898
1683586965455337500,0.96133740234375,0.6382274627685547,-0.4049031138420105,-0.4447300434112549
1683586965465344500,0.971344482421875,0.6034550666809082,-0.22768040001392365,-0.2349323332309723
1683586965475350300,0.981350341796875,0.6439836025238037,-0.24348074197769165,-0.09610609710216522
1683586965485357600,0.991357666015625,0.673321008682251,-0.28894808888435364,-0.06045994907617569
1683586965495364400,1.0013642578125,0.7300524711608887,-0.3035154938697815,-0.1230425015091896
1683586965505371600,1.01137158203125,0.8082000017166138,-0.31304508447647095,-0.2521040737628937
1683586965515377400,1.02137744140625,0.8770173788070679,-0.24664093554019928,-0.4163283407688141
1683586965525384400,1.031384521484375,0.9064242839813232,-0.10412907600402832,-0.6007357835769653
1683586965535391500,1.0413916015625,0.8906781077384949,0.09003668278455734,-0.7239941358566284
1683586965545398500,1.0513984375,0.871323823928833,0.34327372908592224,-0.7541597485542297
1683586965555404500,1.061404541015625,0.8655386567115784,0.5706482529640198,-0.6576241850852966
1683586965565411600,1.07141162109375,0.8767958283424377,0.616066038608551,-0.41381126642227173
1683586965575418400,1.08141845703125,0.8696646690368652,0.49676552414894104,-0.10448039323091507
1683586965585425400,1.09142529296875,0.7946826219558716,0.3159206509590149,0.13115715980529785
1683586965595432400,1.101432373046875,0.6741540431976318,0.030543074011802673,0.16786545515060425
1683586965605438500,1.1114384765625,0.6101580262184143,-0.10709415376186371,0.04228543862700462
1683586965615445200,1.1214453125,0.568339467048645,-0.03883057460188866,-0.1594303399324417
1683586965625452500,1.13145263671875,0.5129941701889038,0.18696899712085724,-0.3413729667663574
1683586965635459300,1.141459228515625,0.4372536242008209,0.551965057849884,-0.45692184567451477
1683586965645465300,1.15146533203125,0.3454166650772095,0.648645281791687,-0.6311565041542053
1683586965655472600,1.16147265625,0.2692912817001343,0.5836624503135681,-0.8241227865219116
1683586965665479400,1.1714794921875,0.2401839941740036,0.47345975041389465,-0.9847801327705383
1683586965675486500,1.181486572265625,0.21189481019973755,0.40947645902633667,-1.0982952117919922
1683586965685492500,1.191492431640625,0.16679923236370087,0.5575798749923706,-1.1074753999710083
1683586965695499500,1.20149951171875,0.08152853697538376,0.8548427820205688,-1.0857586860656738
1683586965705506600,1.211506591796875,-0.1201273500919342,0.9990622401237488,-1.0462267398834229
1683586965715513300,1.221513427734375,-0.28615015745162964,0.939759373664856,-0.9886144399642944
1683586965725520400,1.231520263671875,-0.3758683204650879,0.9170199632644653,-0.9105156064033508
1683586965735526700,1.241526611328125,-0.43750259280204773,0.9175161123275757,-0.8222218751907349
1683586965745533400,1.251533447265625,-0.4534844756126404,0.8874386548995972,-0.7683839201927185
1683586965755540500,1.26154052734375,-0.39208003878593445,0.918387234210968,-0.7575916051864624
1683586965765547500,1.271547607421875,-0.2877131700515747,1.0007973909378052,-0.7659086585044861
1683586965775553500,1.281553466796875,-0.18138721585273743,1.056947112083435,-0.7762402296066284
1683586965785560300,1.291560302734375,-0.12313590198755264,1.0521388053894043,-0.7594455480575562
1683586965795567600,1.301567626953125,-0.13239356875419617,1.0514698028564453,-0.6876086592674255
1683586965805574400,1.311574462890625,-0.18579155206680298,1.0768803358078003,-0.5584863424301147
1683586965815580400,1.321580322265625,-0.2718161940574646,1.1728827953338623,-0.38885706663131714
1683586965825587500,1.33158740234375,-0.35119304060935974,1.276747226715088,-0.2092422991991043
1683586965835594500,1.341594482421875,-0.3751673400402069,1.2731620073318481,-0.053661443293094635
1683586965845601500,1.3516015625,-0.36186936497688293,1.18707275390625,0.07064959406852722
1683586965855607600,1.361607666015625,-0.3121492564678192,1.1120432615280151,0.17156080901622772
1683586965865614300,1.3716142578125,-0.2238074243068695,1.0370904207229614,0.2563137710094452
1683586965875621600,1.38162158203125,-0.08057992905378342,0.9041537046432495,0.32422465085983276
1683586965885628400,1.39162841796875,0.057463958859443665,0.7761845588684082,0.301275372505188
1683586965895635500,1.401635498046875,0.1342114806175232,0.6024823784828186,0.22504115104675293
1683586965905641500,1.411641357421875,0.1363404095172882,0.4405483305454254,0.1377701610326767
1683586965915648500,1.4216484375,0.0774427279829979,0.3429289162158966,0.08315611630678177
1683586965925655300,1.4316552734375,0.011849075555801392,0.3032001554965973,0.0756571814417839
1683586965935662600,1.44166259765625,-0.037361353635787964,0.30367401242256165,0.10054440796375275
1683586965945668400,1.45166845703125,-0.09751869738101959,0.32183411717414856,0.11759662628173828
1683586965955675400,1.46167529296875,-0.11591687798500061,0.21562984585762024,0.13897602260112762
1683586965965682400,1.471682373046875,-0.10119332373142242,0.12517450749874115,0.1358334869146347
1683586965975689500,1.481689453125,-0.09114626049995422,0.049455124884843826,0.10614623129367828
1683586965985695500,1.491695556640625,-0.06450320035219193,-0.08798901736736298,0.08519142121076584
1683586965995702500,1.50170263671875,-0.05010642856359482,-0.17091920971870422,0.08333896100521088
1683586966005709300,1.511709228515625,-0.0701025053858757,-0.1898910403251648,0.11744233965873718
1683586966015716600,1.521716552734375,-0.07348953187465668,-0.18139395117759705,0.16560421884059906
1683586966025722600,1.53172265625,-0.047257665544748306,-0.21218355000019073,0.2015579640865326
1683586966035729400,1.5417294921875,-0.018467286601662636,-0.24823495745658875,0.21581369638442993
1683586966045736400,1.551736328125,-0.018043044954538345,-0.21122606098651886,0.2102828323841095
1683586966055743500,1.561743408203125,-0.030950604006648064,-0.18618327379226685,0.1920110434293747
1683586966065750300,1.571750244140625,-0.03435039147734642,-0.22296738624572754,0.14961272478103638
1683586966075756500,1.581756591796875,-0.050672341138124466,-0.31263968348503113,0.10299491882324219
1683586966085763600,1.591763671875,-0.08421378582715988,-0.407198429107666,0.0784861147403717
1683586966095771000,1.60177099609375,-0.09532823413610458,-0.5381153225898743,0.07875832915306091
1683586966105777700,1.611777587890625,-0.08777257800102234,-0.6598793268203735,0.10452894121408463
1683586966115783700,1.62178369140625,-0.10022126883268356,-0.7130962014198303,0.13824178278446198
1683586966125790700,1.631790771484375,-0.1180490031838417,-0.73598313331604,0.17326794564723969
1683586966135797800,1.6417978515625,-0.12958581745624542,-0.6810889840126038,0.18682795763015747
1683586966145804500,1.651804443359375,-0.17777784168720245,-0.4755401015281677,0.19588297605514526
1683586966155810800,1.661810791015625,-0.16085267066955566,-0.23816819489002228,0.21562765538692474
1683586966165817900,1.67181787109375,-0.14532190561294556,-0.07335233688354492,0.20407140254974365
1683586966175824600,1.68182470703125,-0.08283668756484985,0.008610871620476246,0.140997052192688
1683586966185831700,1.691831787109375,-0.02234431356191635,0.02551501989364624,0.07586810737848282
1683586966195838700,1.701838623046875,0.0036590369418263435,-0.05242130160331726,0.04104670137166977
1683586966205844700,1.7118447265625,0.02478243038058281,-0.14894013106822968,0.03152989223599434
1683586966215851800,1.721851806640625,0.027679970487952232,-0.22538325190544128,0.05991843715310097
1683586966225858800,1.73185888671875,0.0050508249551057816,-0.2634049355983734,0.10446246713399887
1683586966235865900,1.741865966796875,-0.04553777724504471,-0.2872895896434784,0.1453271061182022
1683586966245871900,1.751871826171875,-0.10353663563728333,-0.3149385154247284,0.18684019148349762
1683586966255878700,1.761878662109375,-0.17256470024585724,-0.3951287865638733,0.23922234773635864
1683586966265886000,1.771885986328125,-0.1982807219028473,-0.5450066924095154,0.28655868768692017
1683586966275892700,1.781892822265625,-0.1450909823179245,-0.7462228536605835,0.29181909561157227
1683586966285898800,1.791898681640625,-0.10145775228738785,-0.9500513672828674,0.24586546421051025
1683586966295905800,1.80190576171875,-0.12476388365030289,-1.098773717880249,0.16749891638755798
1683586966305912800,1.811912841796875,-0.17030127346515656,-1.1257182359695435,0.09588918834924698
1683586966315919600,1.821919677734375,-0.3019868731498718,-1.1364988088607788,0.03769228234887123
1683586966325926000,1.83192578125,-0.4126835763454437,-1.0268306732177734,-0.0060408166609704494
1683586966335932700,1.8419326171875,-0.44176262617111206,-0.9661915898323059,-0.0354456901550293
1683586966345939700,1.851939697265625,-0.36953529715538025,-0.9189164638519287,-0.05899761989712715
1683586966355946800,1.86194677734375,-0.21718835830688477,-0.9017847180366516,-0.058423902839422226
1683586966365952800,1.871952880859375,-0.09126558899879456,-0.849827229976654,-0.04119271785020828
1683586966375959600,1.88195947265625,-0.04536440223455429,-0.7872136235237122,-0.02000679448246956
1683586966385966800,1.891966796875,-0.04471299424767494,-0.7378623485565186,-0.007025215309113264
1683586966395973600,1.9019736328125,-0.061995867639780045,-0.6604241728782654,-0.019499845802783966
1683586966405981000,1.91198095703125,-0.07026764005422592,-0.559199333190918,-0.02535107731819153
1683586966415986700,1.921986572265625,-0.050519514828920364,-0.45162346959114075,-0.023472443222999573
1683586966425993700,1.93199365234375,-0.020986389368772507,-0.3932400643825531,-0.013352429494261742
1683586966436000800,1.942000732421875,0.0019777982961386442,-0.4067208170890808,-0.01448117382824421
1683586966446007800,1.9520078125,0.023885227739810944,-0.4650786817073822,-0.036120954900979996
1683586966456013600,1.962013671875,0.06598741561174393,-0.5065876841545105,-0.07171189039945602
1683586966466020900,1.972020751953125,0.11269020289182663,-0.5038648247718811,-0.11270193010568619
1683586966476027600,1.982027587890625,0.14221294224262238,-0.5176308155059814,-0.15136201679706573
1683586966486034700,1.99203466796875,0.15689228475093842,-0.5801546573638916,-0.18667127192020416
1683586966496040700,2.002040771484375,0.15000025928020477,-0.6717916131019592,-0.23408116400241852
1683586966506047700,2.0120478515625,0.09567710012197495,-0.8047472238540649,-0.2749825119972229
1683586966516054500,2.022054443359375,0.021062295883893967,-1.0390223264694214,-0.2697770595550537
1683586966526061800,2.032061767578125,-0.028009910136461258,-1.4152839183807373,-0.23565132915973663
1683586966536068600,2.042068603515625,-0.02526049129664898,-1.8706269264221191,-0.21693457663059235
1683586966546074600,2.05207470703125,0.014009950682520866,-2.3872246742248535,-0.2272236943244934
1683586966556081700,2.06208154296875,0.0696130245923996,-2.9203262329101562,-0.25563809275627136
1683586966566088700,2.072088623046875,0.12731866538524628,-3.4174599647521973,-0.2944302260875702
1683586966576095700,2.082095703125,0.20170263946056366,-3.899608850479126,-0.3108850121498108
1683586966586101800,2.092101806640625,0.22327770292758942,-4.352591037750244,-0.29056161642074585
1683586966596108800,2.10210888671875,0.21182504296302795,-4.814205169677734,-0.23591428995132446
1683586966606115800,2.11211572265625,0.21304236352443695,-5.1546950340271,-0.15991806983947754
1683586966616122600,2.12212255859375,0.013245133683085442,-3.517791748046875,0.4977465271949768
1683586966626128600,2.132128662109375,-0.3097558319568634,-2.3377044200897217,0.9855018258094788
1683586966636136000,2.142135986328125,-0.6759104132652283,-1.034238576889038,1.107096791267395
1683586966646142700,2.152142822265625,-1.0549709796905518,-0.12382367998361588,0.6261477470397949
1683586966656149500,2.1621494140625,-1.5860893726348877,0.5275099873542786,-0.5012781620025635
1683586966666155800,2.17215576171875,-2.293139934539795,0.7372837066650391,-1.9689503908157349
1683586966676162800,2.182162841796875,-2.956116199493408,0.7225489616394043,-3.192730665206909
1683586966686169600,2.192169677734375,-3.4059996604919434,0.8332110047340393,-3.943718910217285
1683586966696176600,2.2021767578125,-3.461451530456543,0.8508750796318054,-4.240286350250244
1683586966706183700,2.21218359375,-3.0645604133605957,0.6961438655853271,-4.198716640472412
1683586966716189700,2.222189697265625,-2.393483877182007,0.3961600065231323,-3.9768848419189453
1683586966726196700,2.23219677734375,-1.5944679975509644,-0.18664084374904633,-3.6006438732147217
1683586966736203800,2.242203857421875,-0.8154481053352356,-0.9874697327613831,-3.1318702697753906
1683586966746210800,2.2522109375,-0.10320668667554855,-1.7802467346191406,-2.676309823989868
1683586966756216800,2.262216796875,0.5720093846321106,-2.446887493133545,-2.333369016647339
1683586966766223600,2.2722236328125,1.1999168395996094,-2.9437644481658936,-2.137634515762329
1683586966776231000,2.28223095703125,1.7626771926879883,-3.3030343055725098,-2.082775354385376
1683586966786237700,2.29223779296875,2.2111964225769043,-3.519474744796753,-2.097377300262451
1683586966796243700,2.30224365234375,2.538735866546631,-3.487969160079956,-2.086207628250122
1683586966806250800,2.312250732421875,2.7809863090515137,-3.241485834121704,-1.9969018697738647
1683586966816257800,2.3222578125,2.9444196224212646,-2.905210018157959,-1.849656343460083
1683586966826264600,2.3322646484375,3.0685904026031494,-2.565042018890381,-1.6717699766159058
1683586966836270800,2.342270751953125,3.159456968307495,-2.2498786449432373,-1.4649295806884766
1683586966846277600,2.352277587890625,3.1516740322113037,-2.04333233833313,-1.2610042095184326
1683586966856284700,2.36228466796875,3.04972505569458,-1.9329420328140259,-1.0977537631988525
1683586966866291700,2.372291748046875,2.9351959228515625,-1.8786225318908691,-0.9854352474212646
1683586966876297700,2.382297607421875,2.836148500442505,-1.9022053480148315,-0.9671062231063843
1683586966886304500,2.392304443359375,2.81099009513855,-2.202090263366699,-1.0895076990127563
1683586966896311800,2.402311767578125,2.86102294921875,-2.791853427886963,-1.318023681640625
1683586966906318600,2.412318603515625,2.6300792694091797,-2.725477933883667,-1.3843365907669067
1683586966916326000,2.422325927734375,2.108567714691162,-2.288456678390503,-1.3086010217666626
1683586966926331600,2.43233154296875,1.456681251525879,-2.000349283218384,-1.3536255359649658
1683586966936338700,2.442338623046875,0.8830074071884155,-1.8240766525268555,-1.4286162853240967
1683586966946345700,2.452345703125,0.40412047505378723,-1.6230874061584473,-1.5644614696502686
1683586966956352800,2.462352783203125,0.04504990950226784,-1.5322222709655762,-1.7086299657821655
1683586966966358800,2.47235888671875,-0.2144642174243927,-1.599611520767212,-1.758117437362671
1683586966976365800,2.48236572265625,-0.41590598225593567,-1.7197431325912476,-1.6493266820907593
1683586966986372600,2.49237255859375,-0.5518619418144226,-1.8325746059417725,-1.5008610486984253
1683586966996379600,2.502379638671875,-0.6573095917701721,-1.962415099143982,-1.303009033203125
1683586967006386000,2.512385986328125,-0.7882052659988403,-2.1724376678466797,-1.1046048402786255
1683586967016392700,2.522392822265625,-0.9685598611831665,-2.2146427631378174,-0.972690224647522
1683586967026399500,2.5323994140625,-1.1870285272598267,-2.1494803428649902,-0.8276944160461426
1683586967036406800,2.54240673828125,-1.4084917306900024,-2.023676633834839,-0.588779866695404
1683586967046412800,2.552412841796875,-1.586644172668457,-1.7689458131790161,-0.34282925724983215
1683586967056419600,2.562419677734375,-1.6706111431121826,-1.4469088315963745,-0.09825590997934341
1683586967066427000,2.572427001953125,-1.640072226524353,-1.1800689697265625,0.2137022465467453
1683586967076433700,2.58243359375,-1.448966383934021,-1.1898325681686401,0.6360459923744202
1683586967086440200,2.592440185546875,-1.0927175283432007,-1.4045826196670532,1.071518063545227
1683586967096446000,2.602446044921875,-0.662094235420227,-1.6428568363189697,1.36935555934906
1683586967106453000,2.612452880859375,-0.2628253996372223,-1.8144060373306274,1.509975552558899
1683586967116460000,2.6224599609375,-0.027663977816700935,-1.7925634384155273,1.5218281745910645
1683586967126467000,2.632467041015625,-0.053907301276922226,-1.4643248319625854,1.4542009830474854
1683586967136472800,2.642472900390625,-0.2690430283546448,-0.944818377494812,1.3053152561187744
1683586967146480000,2.652480224609375,-0.5647072196006775,-0.4977908134460449,1.1540591716766357
1683586967156487000,2.66248681640625,-0.8950920104980469,-0.28344178199768066,1.1307315826416016
1683586967166494000,2.672493896484375,-1.1352497339248657,-0.2687254250049591,1.1649305820465088
1683586967176500000,2.6825,-0.9478790760040283,0.12828588485717773,0.8023790717124939
1683586967186507000,2.692507080078125,-0.6535305380821228,0.3708833158016205,0.2733362317085266
1683586967196513800,2.702513671875,-0.546378493309021,0.2173934429883957,0.2958329916000366
1683586967206521000,2.71252099609375,-0.49279701709747314,0.3481956720352173,0.5795880556106567
1683586967216527000,2.722527099609375,-0.42529335618019104,0.7143599390983582,0.5745188593864441
1683586967226534000,2.732533935546875,-0.45166584849357605,0.8656610250473022,0.3425988256931305
1683586967236541000,2.742541015625,-0.4350227117538452,0.8841765522956848,0.29655200242996216
1683586967246548000,2.7525478515625,-0.35198745131492615,0.8193991780281067,0.6531884074211121
1683586967256554000,2.762553955078125,-0.2699245512485504,0.6752397418022156,0.5330583453178406
1683586967266561000,2.77256103515625,-0.30707457661628723,0.5259626507759094,0.166593536734581
1683586967276567800,2.78256787109375,-0.37090492248535156,0.48463720083236694,0.009859061799943447
1683586967286575000,2.7925751953125,-0.34315425157546997,0.3420100212097168,0.033042676746845245
1683586967296582000,2.802581787109375,-0.2955857217311859,0.32346200942993164,-0.0914720967411995
1683586967306588000,2.812587890625,-0.3290746808052063,0.42061227560043335,-0.3932114541530609
1683586967316595200,2.82259521484375,-0.40744805335998535,0.6130149364471436,-0.7974962592124939
1683586967326602000,2.83260205078125,-0.2873200476169586,1.0323134660720825,-1.1412653923034668
1683586967336608800,2.84260888671875,-0.2225905805826187,1.6474212408065796,-1.424916386604309
1683586967346615000,2.852614990234375,-0.09309437870979309,2.137716293334961,-1.529097080230713
1683586967356622000,2.8626220703125,0.17526118457317352,2.241290330886841,-1.4902467727661133
1683586967366628900,2.87262890625,0.6717226505279541,2.2513885498046875,-1.377051830291748
1683586967376636000,2.882635986328125,1.3085224628448486,2.2542264461517334,-1.2891380786895752
1683586967386642000,2.892641845703125,1.8056448698043823,1.9246017932891846,-1.3156617879867554
1683586967396649000,2.90264892578125,2.2044970989227295,1.5624603033065796,-1.4185216426849365
1683586967406656000,2.912656005859375,2.747676372528076,1.47292160987854,-1.4880017042160034
1683586967416663000,2.9226630859375,3.3993239402770996,1.5546456575393677,-1.436753273010254
1683586967426670000,2.932670166015625,4.04484748840332,1.8235608339309692,-1.2986332178115845
1683586967436676000,2.942676025390625,4.614123344421387,2.261253833770752,-1.19974684715271
1683586967446683000,2.952682861328125,4.940499782562256,2.441214084625244,-1.2540245056152344
1683586967456690200,2.962690185546875,5.148640155792236,1.399794578552246,-1.537603735923767
1683586967466697000,2.972697021484375,5.54782772064209,0.6784715056419373,-1.7253608703613281
1683586967476703000,2.982702880859375,6.035129070281982,0.3581712245941162,-1.4918811321258545
1683586967486710000,2.9927099609375,6.427915096282959,0.4299899935722351,-1.041739821434021
1683586967496717000,3.002717041015625,6.520074367523193,0.47940927743911743,-0.8157481551170349
1683586967506723800,3.012723876953125,6.3221659660339355,-0.59320467710495,-1.1485199928283691
1683586967516730000,3.022730224609375,5.751482009887695,-1.889333724975586,-1.5981405973434448
1683586967526737000,3.03273681640625,5.143127918243408,-2.3438265323638916,-1.7483670711517334
1683586967536744000,3.042743896484375,4.4662861824035645,-1.6341005563735962,-1.5690407752990723
1683586967546751000,3.0527509765625,3.8548295497894287,-0.07797957956790924,-1.6011496782302856
1683586967556757000,3.062757080078125,3.568450927734375,1.4833430051803589,-2.012502431869507
1683586967566763800,3.072763671875,3.4039485454559326,2.143216609954834,-2.405977964401245
1683586967576771000,3.08277099609375,3.2632110118865967,2.501338243484497,-2.8154070377349854
1683586967586777900,3.09277783203125,3.1265835762023926,2.6291980743408203,-3.1401329040527344
1683586967596785200,3.10278515625,2.931910276412964,2.6041431427001953,-3.1611320972442627
1683586967606791000,3.112791015625,2.669269561767578,2.584212303161621,-2.618863582611084
1683586967616798000,3.1227978515625,2.4150302410125732,2.1474971771240234,-1.4933545589447021
1683586967626805000,3.132804931640625,2.373016595840454,1.5519973039627075,-0.27823585271835327
1683586967636812000,3.14281201171875,2.5265631675720215,0.98813796043396,0.657660961151123
1683586967646818000,3.152818115234375,2.710555076599121,0.6189961433410645,1.0369981527328491
1683586967656825000,3.1628251953125,2.7766969203948975,0.6086362600326538,1.0497251749038696
1683586967666832000,3.172831787109375,2.731018543243408,1.2371766567230225,0.7812609076499939
1683586967676839000,3.1828388671875,2.5977978706359863,2.1646273136138916,0.36068758368492126
1683586967686845200,3.19284521484375,2.411226272583008,2.760693311691284,-0.0424252450466156
1683586967696852000,3.20285205078125,2.258694887161255,2.6770222187042236,-0.2699856162071228
1683586967706858800,3.212858642578125,2.1034157276153564,2.311844825744629,-0.3065502941608429
1683586967716866000,3.222865966796875,2.002113103866577,1.9724456071853638,-0.19480808079242706
1683586967726872000,3.2328720703125,2.089639663696289,1.7560720443725586,0.020665347576141357
1683586967736878800,3.24287890625,2.4643502235412598,1.3850167989730835,0.2031131088733673
1683586967746886000,3.252885986328125,2.920522928237915,1.461927890777588,0.15908387303352356
1683586967756893000,3.262892822265625,3.305222988128662,1.6403025388717651,-0.05599810183048248
1683586967766900000,3.27289990234375,3.64707612991333,1.5194942951202393,-0.23292014002799988
1683586967776906000,3.282906005859375,3.94793963432312,1.197075605392456,-0.34878629446029663
1683586967786913000,3.2929130859375,3.9246199131011963,1.0893787145614624,-0.4739556610584259
1683586967796920000,3.302920166015625,3.458782434463501,1.696106195449829,-0.5381766557693481
1683586967806926800,3.3129267578125,2.6279819011688232,2.183637857437134,-0.5065146088600159
1683586967816932900,3.322932861328125,1.3106954097747803,2.695751190185547,-0.30759212374687195
1683586967826940200,3.332940185546875,-0.20324911177158356,2.8112194538116455,0.012850863859057426
1683586967836947000,3.342947021484375,-1.0957196950912476,2.8696482181549072,0.2289510816335678
1683586967846954000,3.3529541015625,-1.0810472965240479,2.3548285961151123,0.21327917277812958
1683586967856960000,3.3629599609375,-0.6333642601966858,1.5624547004699707,0.08877422660589218
1683586967866967000,3.372967041015625,-0.1280752569437027,0.8247702717781067,0.00360340578481555
1683586967876973800,3.382973876953125,0.26390233635902405,0.236511692404747,-0.018986865878105164
1683586967886981000,3.392981201171875,0.44846126437187195,-0.2172107845544815,0.01996426284313202
1683586967896988000,3.40298779296875,0.43190813064575195,-0.348308801651001,0.09881613403558731
1683586967906994000,3.412993896484375,0.36147603392601013,-0.11149439215660095,0.17442166805267334
1683586967917001000,3.4230009765625,0.36726444959640503,0.3162018656730652,0.20527973771095276
1683586967927008000,3.433008056640625,0.45678848028182983,0.7851147651672363,0.2084832638502121
1683586967937015000,3.44301513671875,0.576097309589386,1.183913230895996,0.21813035011291504
1683586967947021000,3.45302099609375,0.6739242672920227,1.3830393552780151,0.2646334171295166
1683586967957027800,3.46302783203125,0.7036349773406982,1.324081540107727,0.3595450520515442
1683586967967035100,3.47303515625,0.6667435169219971,1.014682412147522,0.5235233306884766
1683586967977042000,3.4830419921875,0.5869265198707581,0.47463011741638184,0.7377816438674927
1683586967987048000,3.4930478515625,0.49455025792121887,-0.21956436336040497,0.966458261013031
1683586967997055000,3.503054931640625,0.3721449375152588,-1.0149935483932495,1.1477583646774292
1683586968007062000,3.51306201171875,0.163069486618042,-1.7615641355514526,1.335469126701355
1683586968017068800,3.52306884765625,-0.03819306194782257,-2.310328960418701,1.5259273052215576
1683586968027075000,3.533074951171875,-0.11610996723175049,-2.7511672973632812,1.6483466625213623
1683586968037081900,3.543081787109375,-0.09979890286922455,-2.9860928058624268,1.6708769798278809
1683586968047089000,3.5530888671875,-0.01745579019188881,-2.814868450164795,1.5066626071929932
1683586968057096000,3.563095947265625,0.10977882891893387,-2.443734645843506,1.2143343687057495
1683586968067102000,3.57310205078125,0.23004958033561707,-2.176072597503662,0.9527156949043274
1683586968077108700,3.583108642578125,0.3492923676967621,-1.784783959388733,0.7423908114433289
1683586968087116500,3.593116455078125,0.40859508514404297,-1.3442935943603516,0.6102967262268066
1683586968097123300,3.603123291015625,0.41900378465652466,-0.9202854633331299,0.5378606915473938
1683586968107130600,3.613130615234375,0.40788960456848145,-0.5349164605140686,0.485479474067688
1683586968117136400,3.623136474609375,0.3741346001625061,-0.1536429226398468,0.4461192786693573
1683586968127143400,3.633143310546875,0.331254243850708,0.30875906348228455,0.427279531955719
1683586968137150500,3.643150390625,0.32681235671043396,0.9275531768798828,0.4959627389907837
1683586968147157500,3.653157470703125,0.3653743863105774,1.5365715026855469,0.7586082220077515
1683586968157163300,3.663163330078125,0.3362463116645813,1.3792917728424072,1.1772210597991943
1683586968167170600,3.673170654296875,0.2611398696899414,0.41698354482650757,1.5773288011550903
1683586968177177300,3.68317724609375,0.24147428572177887,-0.8694509267807007,1.7756316661834717
1683586968187184600,3.6931845703125,0.3026156723499298,-1.8046520948410034,1.7083442211151123
1683586968197190400,3.7031904296875,0.39727798104286194,-2.247102975845337,1.4102619886398315
1683586968207197400,3.713197509765625,0.4984368085861206,-2.339840888977051,0.9679697155952454
1683586968217204500,3.72320458984375,0.5971056222915649,-2.26914381980896,0.48637011647224426
1683586968227211500,3.73321142578125,0.6472960710525513,-2.226548671722412,0.07267522066831589
1683586968237218300,3.74321826171875,0.6702491044998169,-2.3276772499084473,-0.19462022185325623
1683586968247224600,3.753224609375,0.657324492931366,-2.537885904312134,-0.2709413468837738
1683586968257231400,3.7632314453125,0.6175200343132019,-2.7400763034820557,-0.18657995760440826
1683586968267238400,3.77323828125,0.5508808493614197,-2.787526845932007,-0.017595991492271423
1683586968277245400,3.783245361328125,0.48383447527885437,-2.565126419067383,0.19384928047657013
1683586968287251500,3.79325146484375,0.4336053729057312,-2.134458541870117,0.37144535779953003
1683586968297258500,3.803258544921875,0.3985499143600464,-1.7533156871795654,0.4181033670902252
1683586968307265500,3.813265625,0.3357240557670593,-1.5945093631744385,0.35279759764671326
1683586968317272300,3.823272216796875,0.24520963430404663,-1.6078917980194092,0.27686628699302673
1683586968327278300,3.8332783203125,0.1154380515217781,-1.5953165292739868,0.25922656059265137
1683586968337285600,3.84328564453125,-0.025047168135643005,-1.4121290445327759,0.34462398290634155
1683586968347292400,3.85329248046875,-0.18941853940486908,-1.0822832584381104,0.5791523456573486
1683586968357299500,3.863299560546875,-0.30359333753585815,-0.8016637563705444,0.8729686737060547
1683586968367305500,3.873305419921875,-0.32942357659339905,-0.5998768210411072,1.1106467247009277
1683586968377312500,3.8833125,-0.21260829269886017,-0.47642698884010315,1.3113409280776978
1683586968387319600,3.893319580078125,-0.07994799315929413,-0.40368780493736267,1.4934097528457642
1683586968397326600,3.90332666015625,-0.026731330901384354,-0.35326096415519714,1.593051552772522
1683586968407333400,3.91333349609375,-0.0685107409954071,-0.2564491927623749,1.5583839416503906
1683586968417339600,3.923339599609375,-0.1508176028728485,-0.1373218297958374,1.3950097560882568
1683586968427346400,3.933346435546875,-0.25465959310531616,-0.13020533323287964,1.1581913232803345
1683586968437353500,3.943353515625,-0.35496753454208374,-0.20112070441246033,0.9334923624992371
1683586968447360500,3.953360595703125,-0.4117141664028168,-0.13497710227966309,0.858783483505249
1683586968457366500,3.963366455078125,-0.41690918803215027,0.1062459945678711,0.9702460169792175
1683586968467373300,3.973373291015625,-0.40642327070236206,0.42776915431022644,1.203709363937378
1683586968477380600,3.983380615234375,-0.34488487243652344,0.5781732201576233,1.398492455482483
1683586968487387400,3.993387451171875,-0.2297936975955963,0.5321900248527527,1.453635573387146
1683586968497393400,4.003393310546875,-0.08218341320753098,0.458446741104126,1.3868274688720703
1683586968507400400,4.013400390625,0.08820989727973938,0.4863066077232361,1.3009663820266724
1683586968517407500,4.023407470703125,0.2586737275123596,0.6801714301109314,1.3538519144058228
1683586968527414500,4.03341455078125,0.44195300340652466,0.8783782720565796,1.4831105470657349
1683586968537420500,4.043420654296875,0.5015220642089844,1.0438282489776611,1.4717658758163452
1683586968547427300,4.05342724609375,0.3641780912876129,0.9930832982063293,1.366581678390503
1683586968557434600,4.0634345703125,0.26468560099601746,0.7875095009803772,1.4306739568710327
1683586968567441400,4.07344140625,0.27332597970962524,0.6566870212554932,1.5942506790161133
1683586968577448400,4.083448486328125,0.3264978229999542,0.8276453614234924,1.7604398727416992
1683586968587454500,4.093454345703125,0.41308626532554626,0.9603179097175598,1.8500375747680664
1683586968597461500,4.10346142578125,0.49894845485687256,0.9873018264770508,1.8479344844818115
1683586968607468300,4.11346826171875,0.5314227342605591,0.9757202863693237,1.78192138671875
1683586968617475600,4.1234755859375,0.5229059457778931,1.0536961555480957,1.7508845329284668
1683586968627481300,4.1334814453125,0.5015993118286133,1.105538010597229,1.679443120956421
1683586968637488400,4.14348828125,0.4429703652858734,1.0463415384292603,1.5619466304779053
1683586968647495400,4.153495361328125,0.38399040699005127,0.8970478773117065,1.4633135795593262
1683586968657502500,4.16350244140625,0.2833184003829956,0.884394645690918,1.3892627954483032
1683586968667508500,4.173508544921875,0.21033020317554474,0.8676859736442566,1.3125826120376587
1683586968677515500,4.183515625,0.1382184773683548,0.8511986136436462,1.275942087173462
1683586968687522300,4.193522216796875,0.11538800597190857,0.8401821851730347,1.243226170539856
1683586968697529600,4.203529541015625,0.11120254546403885,0.816504716873169,1.1731884479522705
1683586968707535600,4.21353564453125,0.11800186336040497,0.8048600554466248,1.0877749919891357
1683586968717542400,4.22354248046875,0.0927196815609932,0.8349863886833191,0.9805237054824829
1683586968727549400,4.233549560546875,0.09534741938114166,0.7376701831817627,0.8033233880996704
1683586968737556500,4.243556396484375,0.06374316662549973,0.7251351475715637,0.6069258451461792
1683586968747563300,4.253563232421875,0.006874557118862867,0.6677834391593933,0.3889482617378235
1683586968757569500,4.263569580078125,-0.016485657542943954,0.6434270739555359,0.15776802599430084
1683586968767576600,4.27357666015625,-0.01664624735713005,0.6255738139152527,-0.0489228330552578
1683586968777583400,4.283583251953125,-0.0042611779645085335,0.6455675363540649,-0.2296459823846817
1683586968787590400,4.29359033203125,0.01697114109992981,0.6847602128982544,-0.39103326201438904
1683586968797596400,4.303596435546875,0.040567271411418915,0.7389289140701294,-0.5332890748977661
1683586968807603500,4.313603515625,0.09354926645755768,0.77863609790802,-0.6390442848205566
1683586968817610500,4.323610595703125,0.08063476532697678,0.816805362701416,-0.7454739809036255
1683586968827617300,4.3336171875,0.03619273006916046,0.8663340210914612,-0.8264849185943604
1683586968837623300,4.343623291015625,0.04586588591337204,0.8572216033935547,-0.9221991300582886
1683586968847630600,4.353630615234375,0.04807098209857941,0.8685230016708374,-1.023123860359192
1683586968857637400,4.363637451171875,0.03420498967170715,0.9224215745925903,-1.1023993492126465
1683586968867644700,4.373644775390625,0.05981368198990822,0.9605854749679565,-1.1396598815917969
1683586968877651500,4.3836513671875,0.041980355978012085,0.9587147831916809,-1.1593457460403442
1683586968887657500,4.393657470703125,-0.006407685577869415,0.9711434841156006,-1.1870063543319702
1683586968897664500,4.40366455078125,-0.07133980095386505,0.9692249298095703,-1.1728781461715698
1683586968907671600,4.413671630859375,-0.14836189150810242,0.9776071906089783,-1.2018709182739258
1683586968917678300,4.42367822265625,-0.22387343645095825,1.0089812278747559,-1.324419617652893
1683586968927684600,4.4336845703125,-0.2973194122314453,0.9865792989730835,-1.5763673782348633
1683586968937691400,4.44369140625,-0.38493746519088745,0.8900969624519348,-2.012385129928589
1683586968947698400,4.453698486328125,-0.46795138716697693,0.724502444267273,-2.6076056957244873
1683586968957705500,4.46370556640625,-0.5628254413604736,0.48938149213790894,-3.285735845565796
1683586968967711500,4.47371142578125,-0.6568517684936523,0.30901944637298584,-4.012097358703613
1683586968977718500,4.483718505859375,-0.7514587044715881,0.27644020318984985,-4.73878812789917
1683586968987725600,4.4937255859375,-0.8389672636985779,0.3481801748275757,-5.374837875366211
1683586968997732400,4.503732421875,-0.9096933603286743,0.4260968863964081,-5.795017719268799
1683586969007738600,4.513738525390625,-0.8772693872451782,0.3258565664291382,-5.914108753204346
1683586969017745400,4.523745361328125,-0.681675374507904,0.16021443903446198,-5.612277984619141
1683586969027752400,4.53375244140625,-0.39363452792167664,0.35242730379104614,-4.908185958862305
1683586969037759500,4.543759521484375,-0.06871023774147034,0.8435943126678467,-4.140875816345215
1683586969047766500,4.5537666015625,0.4550746977329254,1.2897363901138306,-3.642228603363037
1683586969057772300,4.563772216796875,1.047592043876648,1.6227794885635376,-3.378532886505127
1683586969067779600,4.573779541015625,1.5362014770507812,1.7511729001998901,-3.267468214035034
1683586969077786400,4.583786376953125,1.8403797149658203,1.6978330612182617,-3.2310543060302734
1683586969087793400,4.59379345703125,1.9324449300765991,1.5501978397369385,-3.208157539367676
1683586969097799400,4.60379931640625,1.8262790441513062,1.3992202281951904,-3.199504852294922
1683586969107806200,4.61380615234375,1.5547620058059692,1.3549673557281494,-3.174048662185669
1683586969117813200,4.623813232421875,1.1287540197372437,1.4426764249801636,-3.148432493209839
1683586969127820300,4.6338203125,0.5023338198661804,1.6242214441299438,-3.0697827339172363
1683586969137827300,4.643827392578125,-0.21612392365932465,1.7050412893295288,-2.8129220008850098
1683586969147833300,4.653833251953125,-0.8239084482192993,1.4589811563491821,-2.31493878364563
1683586969157840100,4.663840087890625,-1.0621707439422607,0.8845311999320984,-1.501421332359314
1683586969167847400,4.673847412109375,-0.9646450281143188,0.18633083999156952,-0.4209701716899872
1683586969177854200,4.683854248046875,-0.7139840722084045,-0.2335585355758667,0.4706326723098755
1683586969187860200,4.693860107421875,-0.418010950088501,-0.11809797585010529,0.8101297616958618
1683586969197867500,4.703867431640625,-0.053444989025592804,0.3423878848552704,0.5920697450637817
1683586969207874300,4.713874267578125,0.3189474940299988,0.7884902954101562,0.03674770146608353
1683586969217881000,4.723881103515625,0.5619255304336548,0.9782713651657104,-0.6687654852867126
1683586969227887400,4.733887451171875,0.5893784165382385,0.9216475486755371,-1.3174183368682861
1683586969237894400,4.743894287109375,0.4740712642669678,0.7150775790214539,-1.8378386497497559
1683586969247901200,4.753901123046875,0.3383485972881317,0.46225705742836,-2.25781512260437
1683586969257908200,4.763908203125,0.2310277223587036,0.28383076190948486,-2.573009729385376
1683586969267915300,4.773915283203125,0.18239787220954895,0.2167329490184784,-2.7701313495635986
1683586969277921300,4.78392138671875,0.1761101931333542,0.19854432344436646,-2.8162360191345215
1683586969287928300,4.79392822265625,0.17728650569915771,0.1954670399427414,-2.7028896808624268
1683586969297935400,4.803935302734375,0.1393473893404007,0.17272737622261047,-2.4573657512664795
1683586969307942400,4.8139423828125,0.06603028625249863,0.10934679955244064,-2.1284902095794678
1683586969317948400,4.823948486328125,0.001755929784849286,0.01214606687426567,-1.7786118984222412
1683586969327955200,4.833955078125,-0.025397127494215965,-0.07547646015882492,-1.4506795406341553
1683586969337962500,4.84396240234375,0.006401577033102512,-0.08350609242916107,-1.132826566696167
1683586969347969300,4.85396923828125,0.08678563684225082,0.022257622331380844,-0.8247164487838745
1683586969357975300,4.863975341796875,0.19845406711101532,0.16965366899967194,-0.5248205065727234
1683586969367982300,4.873982421875,0.3195871412754059,0.25181272625923157,-0.2279854118824005
1683586969377989400,4.8839892578125,0.4474388659000397,0.1518905609846115,0.04305025190114975
1683586969387996200,4.89399609375,0.5727565288543701,-0.15544568002223969,0.26345694065093994
1683586969398003500,4.90400341796875,0.6997363567352295,-0.6502638459205627,0.4202609956264496
1683586969408009200,4.91400927734375,0.8180787563323975,-1.2589633464813232,0.5113185048103333
1683586969418016300,4.924016357421875,0.889260470867157,-1.8619219064712524,0.5475649237632751
1683586969428023300,4.934023193359375,0.9098256826400757,-2.3294126987457275,0.5374534130096436
1683586969438030300,4.9440302734375,0.8970377445220947,-2.5144779682159424,0.4948669672012329
1683586969448036000,4.9540361328125,0.8700274229049683,-2.3390746116638184,0.44689837098121643
1683586969458043400,4.96404345703125,0.8466216921806335,-1.7486048936843872,0.3959299623966217
1683586969468050200,4.97405029296875,0.855330765247345,-0.8175100088119507,0.3029329180717468
1683586969478057500,4.984057373046875,0.8596232533454895,0.16103380918502808,0.16230082511901855
1683586969488064300,4.994064208984375,0.8134403228759766,1.0199488401412964,-0.012429967522621155
1683586969498070300,5.0040703125,0.7217612266540527,1.6526082754135132,-0.17570890486240387
1683586969508077300,5.014077392578125,0.5879395604133606,2.0464084148406982,-0.28583645820617676
1683586969518084400,5.02408447265625,0.44811877608299255,2.1875226497650146,-0.36645644903182983
1683586969528091100,5.034091064453125,0.3524108827114105,2.08312726020813,-0.4456311762332916
1683586969538097400,5.044097412109375,0.29436516761779785,1.7635115385055542,-0.5364182591438293
1683586969548104200,5.054104248046875,0.23309515416622162,1.3424652814865112,-0.6051541566848755
1683586969558111200,5.064111328125,0.12975730001926422,0.9005163311958313,-0.6233288049697876
1683586969568118300,5.0741181640625,-0.014478432014584541,0.4873540699481964,-0.5739519000053406
1683586969578124300,5.084124267578125,-0.1550038456916809,0.10221745073795319,-0.47323301434516907
1683586969588131000,5.094131103515625,-0.25605908036231995,-0.26347479224205017,-0.3641182482242584
1683586969598138400,5.104138427734375,-0.3068074882030487,-0.5760411620140076,-0.2762615978717804
1683586969608145200,5.114145263671875,-0.3081326484680176,-0.8000494837760925,-0.23626437783241272
1683586969618152400,5.12415234375,-0.2701762616634369,-0.9173684120178223,-0.24844235181808472
1683586969628158200,5.134158203125,-0.21045008301734924,-0.9346669912338257,-0.31688666343688965
1683586969638165200,5.144165283203125,-0.1678098887205124,-0.8316318988800049,-0.43096107244491577
1683586969648172300,5.15417236328125,-0.1493062525987625,-0.6092238426208496,-0.5670208930969238
1683586969658179300,5.164179443359375,-0.1344921886920929,-0.2989098131656647,-0.6907880306243896
1683586969668185300,5.174185302734375,-0.10004686564207077,0.04354473575949669,-0.762855052947998
1683586969678192400,5.1841923828125,-0.03247208148241043,0.3995225727558136,-0.7595455050468445
1683586969688199200,5.19419921875,0.051435068249702454,0.7457327246665955,-0.6955289840698242
1683586969698206500,5.20420654296875,0.1473136842250824,1.0626720190048218,-0.5925058722496033
1683586969708212500,5.21421240234375,0.2553597092628479,1.32961106300354,-0.4838840365409851
1683586969718219300,5.22421923828125,0.36917388439178467,1.506531000137329,-0.40515679121017456
1683586969728226300,5.234226318359375,0.46648311614990234,1.5878071784973145,-0.3620245158672333
1683586969738233300,5.2442333984375,0.5287545323371887,1.5777184963226318,-0.34615808725357056
1683586969748240100,5.254240234375,0.5694431066513062,1.5243772268295288,-0.33873799443244934
1683586969758246400,5.264246337890625,0.5673045516014099,1.5045057535171509,-0.30252400040626526
1683586969768253400,5.27425341796875,0.5057903528213501,1.5936260223388672,-0.20380672812461853
1683586969778260200,5.28426025390625,0.39006131887435913,1.7838139533996582,-0.04147719591856003
1683586969788267300,5.294267333984375,0.23489223420619965,2.0667598247528076,0.18445393443107605
1683586969798273300,5.304273193359375,0.07606267184019089,2.4584367275238037,0.4236796498298645
1683586969808280300,5.3142802734375,-0.03729211539030075,2.9125077724456787,0.593931257724762
1683586969818287400,5.324287353515625,-0.11633127927780151,3.3793091773986816,0.6388968825340271
1683586969828294400,5.33429443359375,-0.19209714233875275,3.8191161155700684,0.5498050451278687
1683586969838301400,5.344301513671875,-0.2874225676059723,4.201207160949707,0.38802289962768555
1683586969848307500,5.354307373046875,-0.38892096281051636,4.423962593078613,0.1897212415933609
1683586969858314200,5.364314208984375,-0.48014333844184875,4.335357666015625,-0.009452976286411285
1683586969868321500,5.374321533203125,-0.5037479996681213,3.7002248764038086,-0.16754913330078125
1683586969878328300,5.384328369140625,-0.46089479327201843,2.497281551361084,-0.2864169180393219
1683586969888334300,5.394334228515625,-0.4091951251029968,0.8737873435020447,-0.3792262077331543
1683586969898341400,5.40434130859375,-0.40198540687561035,-0.9008923172950745,-0.49899712204933167
1683586969908348400,5.414348388671875,-0.4290905296802521,-2.4547512531280518,-0.693266749382019
1683586969918355200,5.424355224609375,-0.41263139247894287,-3.467580556869507,-0.8604190945625305
1683586969928361500,5.434361572265625,-0.2929380238056183,-3.719130039215088,-0.8697993159294128
1683586969938368300,5.4443681640625,-0.08412355184555054,-3.168436288833618,-0.6697273850440979
1683586969948375300,5.454375244140625,0.13979797065258026,-2.2102549076080322,-0.3887743353843689
1683586969958382300,5.46438232421875,0.3369203507900238,-1.2947136163711548,-0.196975439786911
1683586969968389400,5.474389404296875,0.43893861770629883,-0.6039596796035767,-0.07057568430900574
1683586969978395100,5.48439501953125,0.4043806195259094,-0.19588586688041687,0.020388951525092125
1683586969988402400,5.49440234375,0.30587536096572876,0.12231232970952988,0.10392458736896515
1683586969998409200,5.5044091796875,0.27390384674072266,0.8375818729400635,0.24782651662826538
1683586970008416500,5.51441650390625,0.3342830240726471,0.7634812593460083,0.17976756393909454
1683586970018422300,5.52442236328125,0.40070733428001404,0.14232483506202698,-0.05200134217739105
1683586970028429300,5.53442919921875,0.4094656705856323,-0.43100208044052124,-0.33811190724372864
1683586970038436400,5.544436279296875,0.357229083776474,-0.6490384936332703,-0.5873873829841614
1683586970048443400,5.554443359375,0.2556944787502289,-0.41847553849220276,-0.7586885690689087
1683586970058450200,5.5644501953125,0.14235007762908936,0.32375428080558777,-0.8543611764907837
1683586970068456400,5.57445654296875,0.061663754284381866,1.4719793796539307,-0.8669752478599548
1683586970078463200,5.584463134765625,0.07540591806173325,2.7598719596862793,-0.8039349913597107
1683586970088470000,5.594469970703125,0.21333423256874084,3.7718844413757324,-0.7271661758422852
1683586970098477000,5.60447705078125,0.4602026343345642,4.032991886138916,-0.675884485244751
1683586970108483000,5.614483154296875,0.7242965698242188,3.4445688724517822,-0.5800330638885498
1683586970118489900,5.62448974609375,0.9229327440261841,2.4092466831207275,-0.3475003242492676
1683586970128497200,5.6344970703125,1.0007768869400024,1.4815369844436646,-0.03944529965519905
1683586970138504000,5.64450390625,0.9061209559440613,0.89998459815979,0.2143995612859726
1683586970148511200,5.65451123046875,0.6720602512359619,0.5010672807693481,0.34815549850463867
1683586970158517200,5.664517333984375,0.39729365706443787,0.06298644095659256,0.3845519423484802
1683586970168524000,5.67452392578125,0.12316223978996277,-0.5354911088943481,0.3534291982650757
1683586970178531000,5.684531005859375,-0.12539531290531158,-1.3062797784805298,0.2662639021873474
1683586970188538000,5.6945380859375,-0.3510843813419342,-2.1765050888061523,0.1408737599849701
1683586970198544100,5.704544189453125,-0.5708668828010559,-3.0497002601623535,0.0003802997525781393
1683586970208551200,5.71455126953125,-0.7749331593513489,-3.834376096725464,-0.15450701117515564
1683586970218558000,5.724557861328125,-0.9504543542861938,-4.416249752044678,-0.31866177916526794
1683586970228565000,5.73456494140625,-1.0532585382461548,-4.666286945343018,-0.4955095052719116
1683586970238571300,5.7445712890625,-1.0209847688674927,-4.421052932739258,-0.6611301898956299
1683586970248578000,5.754578125,-0.8001322150230408,-3.535645008087158,-0.7403086423873901
1683586970258585000,5.764585205078125,-0.40474021434783936,-2.0102808475494385,-0.6714068651199341
1683586970268592000,5.774592041015625,0.08042410016059875,-0.011015880852937698,-0.4481745660305023
1683586970278599000,5.784598876953125,0.562295138835907,1.7333074808120728,-0.18638283014297485
1683586970288605000,5.79460498046875,0.9367327094078064,2.75126051902771,-0.02660009078681469
1683586970298612200,5.8046123046875,1.1504508256912231,3.047389268875122,0.009853962808847427
1683586970308619000,5.814618896484375,1.1836128234863281,2.766711473464966,-0.004491420928388834
1683586970318626000,5.8246259765625,1.0872879028320312,2.110074281692505,-0.02757462114095688
1683586970328632000,5.834632080078125,0.92078697681427,1.3231288194656372,-0.024140741676092148
1683586970338639000,5.84463916015625,0.7742652297019958,0.6953305006027222,-0.0010100661311298609
1683586970348646100,5.854646240234375,0.7046650648117065,0.4363034665584564,0.011019165627658367
1683586970358653200,5.864653076171875,0.7018687725067139,0.5156781673431396,-0.013915001414716244
1683586970368659000,5.874658935546875,0.742956817150116,0.8035839796066284,-0.08535429835319519
1683586970378666200,5.884666259765625,0.7957348227500916,1.1972484588623047,-0.26702988147735596
1683586970388673000,5.894673095703125,0.8070098757743835,1.514096736907959,-0.5975736975669861
1683586970398680000,5.90468017578125,0.725774347782135,1.5078520774841309,-1.0029659271240234
1683586970408687000,5.91468701171875,0.5776219367980957,1.0908846855163574,-1.3087503910064697
1683586970418693000,5.924693115234375,0.4251924455165863,0.49282485246658325,-1.3832271099090576
1683586970428700000,5.934699951171875,0.331932008266449,-0.05730511248111725,-1.2819406986236572
1683586970438707200,5.944707275390625,0.3228570222854614,-0.5364501476287842,-1.1338469982147217
1683586970448714000,5.9547138671875,0.34214869141578674,-0.9063549637794495,-1.002453327178955
1683586970458720000,5.964719970703125,0.3582860827445984,-1.1246532201766968,-0.8875734210014343
1683586970468727000,5.97472705078125,0.3771305978298187,-1.2161089181900024,-0.8146246075630188
1683586970478734000,5.984734130859375,0.4059537351131439,-1.2258758544921875,-0.7837454676628113
1683586970488741000,5.9947412109375,0.4302939772605896,-1.135787010192871,-0.7703396081924438
1683586970498747100,6.0047470703125,0.39900848269462585,-0.8868970274925232,-0.7335690855979919
1683586970508754000,6.01475390625,0.29088255763053894,-0.45479175448417664,-0.6721214056015015
1683586970518761200,6.02476123046875,0.1808822900056839,0.03023424930870533,-0.6339994668960571
1683586970528768000,6.03476806640625,0.13839182257652283,0.39365559816360474,-0.6517906785011292
1683586970538775000,6.044775146484375,0.14994433522224426,0.5716049671173096,-0.7062129974365234
1683586970548781000,6.054781005859375,0.1953624188899994,0.6329519152641296,-0.7262260913848877
1683586970558788000,6.0647880859375,0.24696166813373566,0.6459746956825256,-0.667187511920929
1683586970568795000,6.074794921875,0.30566760897636414,0.6165217161178589,-0.5437782406806946
1683586970578802200,6.08480224609375,0.37222400307655334,0.5386348366737366,-0.4140290915966034
1683586970588808000,6.094807861328125,0.45043304562568665,0.39689287543296814,-0.36505836248397827
1683586970598815000,6.10481494140625,0.5177899599075317,0.2288179248571396,-0.4570387005805969
1683586970608822000,6.114822021484375,0.5355322360992432,0.12905538082122803,-0.6597315669059753
1683586970618829000,6.1248291015625,0.4658200144767761,0.15561224520206451,-0.9043368697166443
1683586970628836000,6.134836181640625,0.3261409401893616,0.2704663872718811,-1.0769294500350952
1683586970638842000,6.144842041015625,0.17032471299171448,0.34217438101768494,-1.0921289920806885
1683586970648849000,6.154848876953125,0.06362170726060867,0.2638678550720215,-0.9580650329589844
1683586970658856200,6.164856201171875,0.06141236424446106,0.04330591484904289,-0.7514379620552063
1683586970668863000,6.174863037109375,0.11292190104722977,-0.209059476852417,-0.5522681474685669
1683586970678869000,6.184868896484375,0.1832253485918045,-0.38680025935173035,-0.42028912901878357
1683586970688876000,6.1948759765625,0.26332125067710876,-0.4567718803882599,-0.3679753243923187
1683586970698883000,6.204883056640625,0.3453899621963501,-0.3696434497833252,-0.3940112292766571
1683586970708889900,6.214889892578125,0.42539533972740173,1.4380024671554565,-0.5816724300384521
1683586970718897200,6.224897216796875,0.21480722725391388,6.994919776916504,-0.5774387717247009
1683586970728903200,6.234903076171875,0.04667547717690468,8.003744125366211,-0.4445126950740814
1683586970738910000,6.244909912109375,0.11029228568077087,5.905544757843018,-0.569852352142334
1683586970748917000,6.2549169921875,0.12469732761383057,3.3816163539886475,-0.6474065184593201
1683586970758924000,6.264924072265625,0.1243835836648941,2.2736423015594482,-0.3192717432975769
1683586970768930000,6.274929931640625,0.2025846540927887,3.306058406829834,0.39715826511383057
1683586970778937000,6.28493701171875,0.2241048365831375,3.2320384979248047,0.3583405315876007
1683586970788944100,6.294944091796875,0.0858478993177414,2.0796186923980713,-0.19712883234024048
1683586970798951200,6.304951171875,-0.13073231279850006,1.9118402004241943,-0.31684014201164246
1683586970808957200,6.314957275390625,-0.2564031481742859,1.7433431148529053,-0.19498403370380402
1683586970818964000,6.3249638671875,-0.26296094059944153,1.3489021062850952,-0.09091178327798843
1683586970828971300,6.33497119140625,-0.24539151787757874,1.2173347473144531,0.058787696063518524
1683586970838978000,6.34497802734375,-0.21155712008476257,1.2355525493621826,0.12900826334953308
1683586970848984800,6.35498486328125,-0.15658043324947357,1.3637497425079346,0.10698205977678299
1683586970858991000,6.3649912109375,-0.09369068592786789,1.4476202726364136,0.0220914538949728
1683586970868998100,6.374998046875,-0.047808412462472916,1.3953025341033936,-0.04092958942055702
1683586970879005000,6.3850048828125,-0.013434749096632004,1.1735997200012207,-0.03795488551259041
1683586970889012200,6.39501220703125,0.011618939228355885,0.7745510935783386,0.002830628538504243
1683586970899018000,6.40501806640625,0.01175716333091259,0.3940461277961731,0.05522427335381508
1683586970909025000,6.41502490234375,-0.010795550420880318,0.10133461654186249,0.06480313092470169
1683586970919032000,6.425031982421875,-0.03835364803671837,-0.08208928257226944,0.03420659527182579
1683586970929039000,6.4350390625,-0.04469090700149536,-0.15628628432750702,0.009307106025516987
1683586970939044900,6.445044921875,-0.02897772192955017,-0.22776784002780914,-0.008802248165011406
1683586970949052200,6.45505224609375,-0.017797505483031273,-0.31518131494522095,-0.012296315282583237
1683586970959059000,6.465058837890625,-0.020699840039014816,-0.41980603337287903,-0.01265949197113514
1683586970969066200,6.475066162109375,-0.033026546239852905,-0.5498383641242981,-0.02090250700712204
1683586970979073000,6.485072998046875,-0.048205479979515076,-0.7056339383125305,-0.029655881226062775
1683586970989079000,6.4950791015625,-0.06122966855764389,-0.8771769404411316,-0.0303427092730999
1683586970999086000,6.505086181640625,-0.07326635718345642,-1.1021567583084106,-0.02937598153948784
1683586971009093000,6.515093017578125,-0.07250363379716873,-1.3311576843261719,-0.013962139375507832
1683586971019100000,6.525099853515625,-0.05466235429048538,-1.5900745391845703,0.012650753371417522
1683586971029106200,6.535106201171875,-0.0246724970638752,-1.888511300086975,0.047178637236356735
1683586971039113000,6.545113037109375,0.0029474489856511354,-2.238657236099243,0.08284296840429306
1683586971049120000,6.5551201171875,0.014387323521077633,-2.651803731918335,0.1255832463502884
1683586971059127000,6.565126953125,0.0267784520983696,-3.0938541889190674,0.17226341366767883
1683586971069133000,6.575133056640625,0.0167953260242939,-3.56256103515625,0.1985405534505844
1683586971079139800,6.585139892578125,-0.01911206729710102,-3.991915464401245,0.23455283045768738
1683586971089148000,6.59514794921875,-0.08729591220617294,-4.375875949859619,0.29079583287239075
1683586971099154700,6.60515478515625,-0.20317459106445312,-4.687614440917969,0.38216543197631836
1683586971109161700,6.61516162109375,-0.3503083884716034,-4.776233673095703,0.5399324297904968
1683586971119167700,6.625167724609375,-0.4791068136692047,-4.428628921508789,0.7885705232620239
1683586971129174800,6.6351748046875,-0.5167889595031738,-3.4703433513641357,1.0896989107131958
1683586971139181600,6.645181640625,-0.4136181175708771,-1.9987123012542725,1.2708427906036377
1683586971149188900,6.65518896484375,-0.1600220799446106,-0.42167726159095764,1.1162707805633545
1683586971159194600,6.665194580078125,0.032367900013923645,0.7590104341506958,0.6352115869522095
1683586971169201700,6.67520166015625,-0.03452404588460922,1.3287748098373413,0.29082754254341125
1683586971179208700,6.685208740234375,-0.21743793785572052,1.409615159034729,0.2550491690635681
1683586971189215700,6.6952158203125,-0.3450579345226288,1.135736107826233,0.4247106611728668
1683586971199222800,6.705222900390625,-0.367118239402771,0.6103153228759766,0.6677036881446838
1683586971209228800,6.715228759765625,-0.2978723347187042,-0.038735926151275635,0.8913538455963135
1683586971219235600,6.725235595703125,-0.2067488133907318,-0.5961633920669556,1.008746862411499
1683586971229243000,6.735242919921875,-0.19393500685691833,-0.8424386978149414,0.9663181900978088
1683586971239249700,6.745249755859375,-0.2653719186782837,-0.8115260601043701,0.7811154127120972
1683586971249255700,6.755255615234375,-0.3703334927558899,-0.5916264653205872,0.5310938954353333
1683586971259262700,6.7652626953125,-0.4660690426826477,-0.3011154532432556,0.334322452545166
1683586971269269800,6.775269775390625,-0.503476619720459,-0.14623185992240906,0.29417771100997925
1683586971279276500,6.785276611328125,-0.49927839636802673,-0.19981014728546143,0.4099172353744507
1683586971289282800,6.79528271484375,-0.46624240279197693,-0.3667179048061371,0.5835049748420715
1683586971299289600,6.80528955078125,-0.4260704815387726,-0.5059253573417664,0.7083380222320557
1683586971309296600,6.815296630859375,-0.39189866185188293,-0.5507282614707947,0.7508796453475952
1683586971319303700,6.8253037109375,-0.34672293066978455,-0.5347179174423218,0.738739013671875
1683586971329310700,6.835310791015625,-0.3033818304538727,-0.47019699215888977,0.6930985450744629
1683586971339316500,6.84531640625,-0.2725813686847687,-0.3673721253871918,0.641528308391571
1683586971349323800,6.85532373046875,-0.2641567289829254,-0.2459479719400406,0.5990708470344543
1683586971359330600,6.86533056640625,-0.27150997519493103,-0.1553463339805603,0.5816344022750854
1683586971369337900,6.875337890625,-0.2810414433479309,-0.15652026236057281,0.5877162218093872
1683586971379344000,6.88534375,-0.2790358066558838,-0.2531290054321289,0.5943441987037659
1683586971389350700,6.8953505859375,-0.2638840079307556,-0.37880438566207886,0.5883091688156128
1683586971399357700,6.905357666015625,-0.24920547008514404,-0.450594425201416,0.5655505657196045
1683586971409364700,6.91536474609375,-0.2269134819507599,-0.4543590545654297,0.5287097692489624
1683586971419371500,6.92537158203125,-0.19735769927501678,-0.4128270447254181,0.48723751306533813
1683586971429377800,6.935377685546875,-0.17379379272460938,-0.34207937121391296,0.4490880072116852
1683586971439384600,6.945384521484375,-0.15646006166934967,-0.25175997614860535,0.4169008135795593
1683586971449391600,6.9553916015625,-0.14539995789527893,-0.1502988636493683,0.40024301409721375
1683586971459398700,6.965398681640625,-0.1339997798204422,-0.044227369129657745,0.40213534235954285
1683586971469404700,6.97540478515625,-0.12084508687257767,0.07764314115047455,0.42447954416275024
1683586971479412000,6.985411865234375,-0.10203651338815689,0.2078743875026703,0.45681723952293396
1683586971489418800,6.995418701171875,-0.08265216648578644,0.33954745531082153,0.499442994594574
1683586971499425500,7.005425537109375,-0.056827761232852936,0.44544726610183716,0.5388572812080383
1683586971509431800,7.015431884765625,-0.02110571786761284,0.4802451729774475,0.550978422164917
1683586971519438800,7.02543896484375,0.03216364234685898,0.3816390633583069,0.5070836544036865
1683586971529445600,7.035445556640625,0.07877322286367416,0.18872500956058502,0.41902920603752136
1683586971539452700,7.04545263671875,0.09843292087316513,0.0032219106797128916,0.31708794832229614
1683586971549459700,7.055459716796875,0.08917311578989029,-0.10790541023015976,0.23051764070987701
1683586971559465700,7.0654658203125,0.0818377137184143,-0.14109061658382416,0.14999346435070038
1683586971569472800,7.07547265625,0.08361510932445526,-0.12364425510168076,0.06899715214967728
1683586971579479800,7.085479736328125,0.09406805783510208,-0.07103434205055237,-0.01085764542222023
1683586971589486800,7.09548681640625,0.11282256990671158,0.003641759045422077,-0.09468276798725128
1683586971599492900,7.105492919921875,0.14553117752075195,0.0975329726934433,-0.184003546833992
1683586971609499600,7.115499755859375,0.1939498484134674,0.21002408862113953,-0.27289530634880066
1683586971619507000,7.1255068359375,0.23885342478752136,0.3276156187057495,-0.35010868310928345
1683586971629513700,7.135513671875,0.27466654777526855,0.4403749108314514,-0.40671440958976746
1683586971639520800,7.145520751953125,0.3012411892414093,0.5381889343261719,-0.45353174209594727
1683586971649526800,7.15552685546875,0.3262519836425781,0.5926076769828796,-0.4970203638076782
1683586971659533800,7.165533935546875,0.34255051612854004,0.5690404176712036,-0.5543842911720276
1683586971669540600,7.17554052734375,0.34432074427604675,0.476109117269516,-0.6237122416496277
1683586971679548000,7.1855478515625,0.33871957659721375,0.37562814354896545,-0.6804447174072266
1683586971689553700,7.1955537109375,0.3281579911708832,0.30026519298553467,-0.7140708565711975
1683586971699560700,7.205560791015625,0.26469436287879944,0.2523730397224426,-0.7398666143417358
1683586971709567700,7.215567626953125,0.3501158058643341,0.22765383124351501,-0.7683120965957642
1683586971719574800,7.22557470703125,0.34302589297294617,0.23706786334514618,-0.7930938005447388
1683586971729581800,7.235581787109375,0.3311106562614441,0.27664217352867126,-0.8081560730934143
1683586971739587800,7.245587890625,0.3072633743286133,0.32531580328941345,-0.8163366913795471
1683586971749594600,7.2555947265625,0.2727046012878418,0.36718466877937317,-0.8181084990501404
1683586971759602000,7.265601806640625,0.2434106171131134,0.37436598539352417,-0.8100751042366028
1683586971769608700,7.275608642578125,0.25938957929611206,0.33130159974098206,-0.812222957611084
1683586971779614700,7.28561474609375,0.18035441637039185,0.22543367743492126,-0.8397902846336365
1683586971789621800,7.295621826171875,0.2782977521419525,0.10045791417360306,-0.8795915246009827
1683586971799628800,7.30562890625,0.29111024737358093,0.025033539161086082,-0.9137804508209229
1683586971809635600,7.315635498046875,0.2863314747810364,0.04146204888820648,-0.8958320617675781
1683586971819641900,7.325641845703125,0.28904446959495544,0.11833551526069641,-0.8047075867652893
1683586971829648600,7.335648681640625,0.3381592631340027,0.18633081018924713,-0.6737785935401917
1683586971839655700,7.34565576171875,0.40812474489212036,0.20742103457450867,-0.5527907609939575
1683586971849662700,7.355662841796875,0.39152607321739197,0.17729482054710388,-0.48448842763900757
1683586971859669800,7.365669677734375,0.46857690811157227,0.16896231472492218,-0.4855276942253113
1683586971869675500,7.375675537109375,0.41668522357940674,0.22259917855262756,-0.5168192982673645
1683586971879682800,7.385682861328125,0.37227803468704224,0.2693782448768616,-0.5629274845123291
1683586971889689600,7.395689697265625,0.33100438117980957,0.2540573477745056,-0.6125176548957825
1683586971899697000,7.40569677734375,0.2775803208351135,0.21001653373241425,-0.6269001364707947
1683586971909702700,7.41570263671875,0.23695538938045502,0.14124946296215057,-0.6025606989860535
1683586971919709700,7.425709716796875,0.22060519456863403,0.04160142317414284,-0.5852183103561401
1683586971929716700,7.435716796875,0.14779916405677795,-0.051252350211143494,-0.586571991443634
1683586971939723800,7.445723876953125,0.17233087122440338,-0.11080720275640488,-0.60882568359375
1683586971949730600,7.45573046875,0.10253740847110748,-0.12592703104019165,-0.6215585470199585
1683586971959736800,7.46573681640625,0.05749139189720154,-0.13680517673492432,-0.6369447112083435
1683586971969743600,7.47574365234375,0.05562771111726761,-0.14943468570709229,-0.6595613360404968
1683586971979750700,7.485750732421875,0.09073907136917114,-0.14660602807998657,-0.6771772503852844
1683586971989757700,7.4957578125,0.1510910987854004,-0.13184332847595215,-0.6629522442817688
1683586971999763700,7.505763671875,0.21372543275356293,0.30621248483657837,-0.6004757881164551
1683586972009770800,7.515770751953125,0.1328151375055313,5.050490379333496,-0.003799326252192259
1683586972019777800,7.52577783203125,0.018509361892938614,7.530237197875977,0.12767215073108673
1683586972029784600,7.53578466796875,0.24488018453121185,4.9807305335998535,-0.47925692796707153
1683586972039790600,7.54579052734375,0.331341028213501,2.8822169303894043,-0.6553930044174194
1683586972049798000,7.5557978515625,0.25553175806999207,3.1433355808258057,-0.04381515830755234
1683586972059804700,7.5658046875,0.12864333391189575,3.4952824115753174,0.3982618451118469
1683586972069811700,7.575811767578125,0.08210805803537369,2.8366036415100098,0.19395959377288818
1683586972079818800,7.58581884765625,0.009268173016607761,2.814239740371704,-0.005842276383191347
1683586972089824300,7.59582421875,-0.09353890269994736,2.891403913497925,-0.10388468950986862
1683586972099831300,7.605831298828125,-0.16036131978034973,2.6491425037384033,-0.1330951303243637
1683586972109838300,7.61583837890625,-0.19078606367111206,2.3226382732391357,-0.05589355528354645
1683586972119845400,7.625845458984375,-0.2000671625137329,1.9226936101913452,0.06462724506855011
1683586972129851400,7.635851318359375,-0.18865631520748138,1.422094702720642,0.14457079768180847
1683586972139858200,7.645858154296875,-0.1707998365163803,0.895287811756134,0.1655927151441574
1683586972149865500,7.655865478515625,-0.1573772430419922,0.4734942317008972,0.15429319441318512
1683586972159872300,7.665872314453125,-0.142827570438385,0.20209723711013794,0.09933876246213913
1683586972169879300,7.67587939453125,-0.12819430232048035,0.021636387333273888,0.011757778003811836
1683586972179885300,7.68588525390625,-0.11485747247934341,-0.12645311653614044,-0.0425775945186615
1683586972189892400,7.695892333984375,-0.11404813826084137,-0.30257648229599,-0.0563432052731514
1683586972199899100,7.705899169921875,-0.12947183847427368,-0.4924606680870056,-0.06506133079528809
1683586972209906400,7.715906494140625,-0.165519580245018,-0.7203763723373413,-0.09072275459766388
1683586972219912200,7.725912109375,-0.20216737687587738,-0.9596351981163025,-0.09424984455108643
1683586972229919200,7.735919189453125,-0.23212768137454987,-1.2591196298599243,-0.08733521401882172
1683586972239926300,7.74592626953125,-0.24952742457389832,-1.5981619358062744,-0.06799058616161346
1683586972249933300,7.755933349609375,-0.24910292029380798,-1.9377219676971436,-0.03693493455648422
1683586972259939000,7.76593896484375,-0.23377855122089386,-2.3024513721466064,-0.018018610775470734
1683586972269946400,7.7759462890625,-0.21004179120063782,-2.630858898162842,0.008912606164813042
1683586972279953200,7.785953125,-0.18210233747959137,-2.9253644943237305,0.04222461208701134
1683586972289960400,7.79596044921875,-0.14231577515602112,-3.2182772159576416,0.05136191472411156
1683586972299967200,7.80596728515625,-0.088514044880867,-3.4761035442352295,0.047565024346113205
1683586972309973200,7.81597314453125,-0.010897815227508545,-3.7134430408477783,0.04749045521020889
1683586972319980300,7.825980224609375,0.09047671407461166,-3.911003589630127,0.06895267963409424
1683586972329987300,7.8359873046875,0.2088499665260315,-4.000702857971191,0.136997252702713
1683586972339994000,7.845994140625,0.3483293056488037,-3.8314905166625977,0.22519318759441376
1683586972350000400,7.85600048828125,0.4472622871398926,-3.2466630935668945,0.39975860714912415
1683586972360007200,7.866007080078125,0.38261646032333374,-2.0577003955841064,0.7182645797729492
1683586972370014200,7.87601416015625,0.15792423486709595,-0.5517024397850037,1.0519245862960815
1683586972380021200,7.886021240234375,-0.12657219171524048,0.5673909187316895,1.1651839017868042
1683586972390028300,7.8960283203125,-0.2608434557914734,0.7801125049591064,0.958168089389801
1683586972400034300,7.906034423828125,-0.24986615777015686,0.5169215202331543,0.6342402696609497
1683586972410041300,7.916041259765625,-0.2767409384250641,0.37270307540893555,0.4430873394012451
1683586972420048100,7.926048095703125,-0.33126968145370483,0.25961968302726746,0.36460989713668823
1683586972430055400,7.936055419921875,-0.3728983700275421,0.06420571357011795,0.34058287739753723
1683586972440061400,7.9460615234375,-0.3879947066307068,-0.2203206866979599,0.3438672423362732
1683586972450068200,7.956068115234375,-0.3792744576931,-0.4820207357406616,0.3864187002182007
1683586972460075300,7.9660751953125,-0.36528491973876953,-0.5827351212501526,0.4722702205181122
1683586972470082300,7.976082275390625,-0.3378700613975525,-0.5500352382659912,0.5623289942741394
1683586972480089000,7.986089111328125,-0.29660171270370483,-0.4566483497619629,0.619206428527832
1683586972490095400,7.996095458984375,-0.26061972975730896,-0.35825014114379883,0.6125096678733826
1683586972500102400,8.006102294921876,-0.2553413510322571,-0.3184846043586731,0.5505083799362183
1683586972510109400,8.016109375,-0.28620073199272156,-0.3421659767627716,0.5159628987312317
1683586972520116200,8.0261162109375,-0.3070141673088074,-0.39078739285469055,0.5175474882125854
1683586972530122200,8.036122314453126,-0.2996390461921692,-0.43967050313949585,0.5361654162406921
1683586972540129500,8.046129638671875,-0.2773768901824951,-0.46797651052474976,0.5719828009605408
1683586972550136300,8.05613623046875,-0.26519158482551575,-0.47979989647865295,0.6049585938453674
1683586972560143400,8.066143310546876,-0.2672044038772583,-0.47292548418045044,0.6064485907554626
1683586972570150400,8.076150390625,-0.2871626615524292,-0.42702457308769226,0.5754091739654541
1683586972580156400,8.086156494140624,-0.31910356879234314,-0.3665119409561157,0.5286274552345276
1683586972590163200,8.0961630859375,-0.3514633774757385,-0.34678563475608826,0.47107309103012085
1683586972600170500,8.10617041015625,-0.38380375504493713,-0.38436630368232727,0.4201678931713104
1683586972610177300,8.11617724609375,-0.4053758978843689,-0.44067057967185974,0.3944907486438751
1683586972620183300,8.126183349609375,-0.40735936164855957,-0.46849504113197327,0.3808733820915222
1683586972630190300,8.1361904296875,-0.3947807252407074,-0.4521208703517914,0.39260274171829224
1683586972640197400,8.146197265625,-0.3848559856414795,-0.4099077880382538,0.4237423837184906
1683586972650204400,8.156204345703125,-0.3782031238079071,-0.3642582893371582,0.4722529351711273
1683586972660211200,8.166211181640625,-0.38128945231437683,-0.3381625711917877,0.5171473622322083
1683586972670217200,8.17621728515625,-0.38734227418899536,-0.3354107439517975,0.5415043830871582
1683586972680224500,8.186224609375,-0.3837110698223114,-0.3506414294242859,0.527010977268219
1683586972690231300,8.196231201171875,-0.36960509419441223,-0.3729824423789978,0.48023417592048645
1683586972700238300,8.20623828125,-0.3542482554912567,-0.3685387969017029,0.4164499342441559
1683586972710244400,8.216244384765625,-0.3370700478553772,-0.32608747482299805,0.3401794135570526
1683586972720251400,8.22625146484375,-0.3203723132610321,-0.24848012626171112,0.25928598642349243
1683586972730258200,8.236258056640626,-0.29991018772125244,-0.13080301880836487,0.18628741800785065
1683586972740265500,8.246265380859375,-0.27464690804481506,0.010866694152355194,0.1417362242937088
1683586972750271200,8.256271240234375,-0.2481553852558136,0.17488226294517517,0.16507723927497864
1683586972760278300,8.2662783203125,-0.23278121650218964,0.3795500099658966,0.2807003855705261
1683586972770285300,8.276285400390625,-0.22664956748485565,0.6238244771957397,0.4718572795391083
1683586972780292400,8.286292236328125,-0.21485893428325653,0.871457576751709,0.6849309206008911
1683586972790299400,8.29629931640625,-0.17503242194652557,1.02700936794281,0.8484037518501282
1683586972800305400,8.306305419921875,-0.09327605366706848,0.9713989496231079,0.9150620698928833
1683586972810312200,8.316312255859375,0.034343160688877106,0.7010313868522644,0.848434329032898
1683586972820319500,8.326319580078126,0.14004749059677124,0.4029994010925293,0.6916621923446655
1683586972830326300,8.336326171875,0.13948850333690643,0.33505019545555115,0.5460357666015625
1683586972840332300,8.346332275390624,0.03191172331571579,0.4815186858177185,0.4438815116882324
1683586972850339300,8.35633935546875,-0.11703594774007797,0.6538291573524475,0.3389231264591217
1683586972860346400,8.366346435546875,-0.23003336787223816,0.7323038578033447,0.21202537417411804
1683586972870353200,8.376353271484374,-0.28857046365737915,0.6979922652244568,0.06621437519788742
1683586972880360400,8.3863603515625,-0.3051203787326813,0.5646249651908875,-0.09840191155672073
1683586972890366200,8.3963662109375,-0.29490476846694946,0.3282531797885895,-0.28085455298423767
1683586972900373200,8.406373291015624,-0.2585097551345825,0.007701254449784756,-0.46161261200904846
1683586972910380300,8.41638037109375,-0.19904455542564392,-0.31987953186035156,-0.5917384028434753
1683586972920387300,8.42638720703125,-0.1299581527709961,-0.5465693473815918,-0.6358393430709839
1683586972930393300,8.436393310546874,-0.042908746749162674,-0.5866323113441467,-0.5940061807632446
1683586972940400400,8.446400390625,0.07355128973722458,-0.4354798197746277,-0.5003803372383118
1683586972950407200,8.4564072265625,0.22600314021110535,-0.17609111964702606,-0.40029823780059814
1683586972960414500,8.46641455078125,0.40637853741645813,0.11194650828838348,-0.31350433826446533
1683586972970421200,8.476421142578126,0.5678688883781433,0.3571661114692688,-0.21605820953845978
1683586972980427300,8.48642724609375,0.6577239036560059,0.511612594127655,-0.08829165250062943
1683586972990434300,8.496434326171874,0.6965091228485107,0.5757482051849365,0.07738572359085083
1683586973000441300,8.50644140625,0.708586573600769,0.6023454666137695,0.21163493394851685
1683586973010448100,8.5164482421875,0.7125576138496399,0.6362216472625732,0.26242515444755554
1683586973020454400,8.526454345703126,0.6846617460250854,0.6749771237373352,0.19481326639652252
1683586973030461200,8.536461181640625,0.6097753047943115,0.6667700409889221,0.019426006823778152
1683586973040468200,8.54646826171875,0.4899849593639374,0.5964791774749756,-0.22235599160194397
1683586973050475300,8.556475341796874,0.34712234139442444,0.49090805649757385,-0.47670841217041016
1683586973060481300,8.566481201171875,0.21781979501247406,0.3876143991947174,-0.6704966425895691
1683586973070488300,8.57648828125,0.1234821081161499,0.2810235023498535,-0.7669776678085327
1683586973080495400,8.586495361328126,0.06228026747703552,0.13043053448200226,-0.7678127884864807
1683586973090504000,8.59650390625,0.0336957611143589,-0.09182942658662796,-0.7169600129127502
1683586973100510700,8.6065107421875,0.022516891360282898,-0.361248642206192,-0.685997724533081
1683586973110517000,8.61651708984375,0.006303033325821161,-0.5880885124206543,-0.7113550305366516
1683586973120524000,8.62652392578125,0.00005444325506687164,-0.6996338963508606,-0.753438413143158
1683586973130530800,8.63653076171875,0.012602459639310837,-0.687127947807312,-0.782947838306427
1683586973140537900,8.646537841796874,0.04231882467865944,-0.5940764546394348,-0.7881119847297668
1683586973150544000,8.6565439453125,0.09168663620948792,-0.47437024116516113,-0.7834333181381226
1683586973160551000,8.666551025390625,0.1571281999349594,-0.3585904538631439,-0.7720293402671814
1683586973170558000,8.676557861328124,0.2266247272491455,-0.2752143442630768,-0.7441596388816833
1683586973180565000,8.68656494140625,0.29612550139427185,-0.21511858701705933,-0.6999796628952026
1683586973190572000,8.696572021484375,0.35974228382110596,-0.14661063253879547,-0.6471601128578186
1683586973200578000,8.706578125,0.3981000483036041,-0.06113274767994881,-0.6005452275276184
1683586973210584800,8.716584716796875,0.4101274311542511,0.02842855639755726,-0.5764971375465393
1683586973220592000,8.726592041015625,0.39530590176582336,0.1299695521593094,-0.5709586143493652
1683586973230599000,8.736598876953124,0.36729344725608826,0.23799268901348114,-0.5749850273132324
1683586973240605000,8.74660498046875,0.32705357670783997,0.33016470074653625,-0.5851764678955078
1683586973250612000,8.756612060546875,0.2780362367630005,0.40512949228286743,-0.5851535797119141
1683586973260619000,8.766618896484376,0.22814859449863434,0.4612233638763428,-0.5693090558052063
1683586973270625800,8.776625732421875,0.18606585264205933,0.4668160080909729,-0.5556984543800354
1683586973280633000,8.786633056640625,0.1564682573080063,0.3838566839694977,-0.5631102919578552
1683586973290638800,8.796638916015626,0.13455231487751007,0.2299709916114807,-0.5780519843101501
1683586973300646000,8.80664599609375,0.11568943411111832,0.06425222754478455,-0.5808276534080505
1683586973310653000,8.81665283203125,0.09743425995111465,-0.04722582921385765,-0.5736232399940491
1683586973320660000,8.826659912109376,0.08520844578742981,-0.10699326545000076,-0.5745552182197571
1683586973330665700,8.836665771484375,0.07728314399719238,-0.12957102060317993,-0.5836334228515625
1683586973340673000,8.846673095703125,0.07215365767478943,-0.1292719542980194,-0.5831172466278076
1683586973350679800,8.8566796875,0.07351985573768616,-0.13203391432762146,-0.572094202041626
1683586973360687000,8.86668701171875,0.08921120315790176,-0.16398483514785767,-0.5605391263961792
1683586973370692900,8.87669287109375,0.1252557635307312,-0.18943986296653748,-0.5438879728317261
1683586973380700000,8.886699951171876,0.18061327934265137,-0.18302039802074432,-0.5132717490196228
1683586973390707000,8.89670703125,0.25209999084472656,-0.1329822689294815,-0.4672909677028656
1683586973400714000,8.9067138671875,0.3219859004020691,-0.03669046610593796,-0.4107918441295624
1683586973410720800,8.916720703125,0.3697984218597412,0.07995598763227463,-0.34731271862983704
1683586973420727000,8.92672705078125,0.3651413321495056,1.0359952449798584,-0.251804381608963
1683586973430733800,8.93673388671875,0.10545729100704193,6.346165180206299,0.21766485273838043
1683586973440740900,8.946740966796876,0.048548731952905655,7.250326633453369,-0.11374637484550476
1683586973450748000,8.956747802734375,0.2379937618970871,4.482872009277344,-0.7480716109275818
1683586973460754000,8.96675390625,0.2937214970588684,2.995729923248291,-0.6849050521850586
1683586973470760700,8.9767607421875,0.254083514213562,3.6110260486602783,0.09246287494897842
1683586973480768000,8.98676806640625,0.14618739485740662,3.1456427574157715,0.324425607919693
1683586973490774800,8.99677490234375,-0.0036668158136308193,2.3039228916168213,0.12533941864967346
1683586973500782000,9.006781982421876,-0.1742641031742096,2.327516794204712,0.02878628857433796
1683586973510787800,9.016787841796875,-0.28184595704078674,2.0599961280822754,-0.10376349836587906
1683586973520795000,9.026794921875,-0.31486329436302185,1.715372920036316,-0.1001068726181984
1683586973530802000,9.036802001953125,-0.2920040488243103,1.4146162271499634,-0.0007022505160421133
1683586973540809000,9.04680908203125,-0.23769500851631165,0.9896880984306335,0.05975976213812828
1683586973550815000,9.05681494140625,-0.17723806202411652,0.5674742460250854,0.06747733056545258
1683586973560822000,9.066822021484375,-0.11676643043756485,0.22984641790390015,0.042488619685173035
1683586973570828800,9.076828857421875,-0.06716718524694443,-0.11226911097764969,-0.005712997168302536
1683586973580835800,9.0868359375,-0.04476659744977951,-0.39918962121009827,-0.019794637337327003
1683586973590843000,9.0968427734375,-0.05565785989165306,-0.6739647388458252,-0.024573680013418198
1683586973600849000,9.106848876953125,-0.08181430399417877,-0.9695119261741638,-0.029857803136110306
1683586973610856000,9.11685595703125,-0.11615336686372757,-1.276227355003357,-0.02812994457781315
1683586973620863000,9.126863037109375,-0.1532088667154312,-1.624451756477356,-0.028067924082279205
1683586973630869800,9.136869873046875,-0.1844240427017212,-1.9987475872039795,-0.016693830490112305
1683586973640875800,9.146875732421876,-0.20680633187294006,-2.3523616790771484,0.008674543350934982
1683586973650883000,9.156883056640625,-0.21812370419502258,-2.691005229949951,0.0221935473382473
1683586973660889900,9.166889892578125,-0.2181369811296463,-2.998584032058716,0.020126299932599068
1683586973670897000,9.17689697265625,-0.19643008708953857,-3.261430263519287,0.009165793657302856
1683586973680904000,9.186904052734375,-0.15868514776229858,-3.5000228881835938,-0.001656445674598217
1683586973690910000,9.196909912109374,-0.09548833221197128,-3.751140594482422,-0.0047683496959507465
1683586973700917000,9.2069169921875,-0.04041629657149315,-3.9451804161071777,0.02375755086541176
1683586973710924000,9.216924072265625,0.0013125077821314335,-4.021705627441406,0.0597003735601902
1683586973720930800,9.226930908203125,0.010740894824266434,-3.8470160961151123,0.0836181491613388
1683586973730937000,9.23693701171875,-0.031067539006471634,-3.2433383464813232,0.19148683547973633
1683586973740944000,9.24694384765625,-0.12696263194084167,-2.043092727661133,0.3965846300125122
1683586973750951000,9.256950927734374,-0.2272956222295761,-0.47580933570861816,0.6202725172042847
1683586973760958000,9.2669580078125,-0.23498228192329407,0.7024601101875305,0.7001600861549377
1683586973770964000,9.2769638671875,-0.12872827053070068,0.8881617784500122,0.5877041220664978
1683586973780970800,9.286970703125,-0.10306103527545929,0.7370643615722656,0.521891176700592
1683586973790978000,9.29697802734375,-0.14112506806850433,0.5664609670639038,0.5516205430030823
1683586973800984800,9.30698486328125,-0.17181238532066345,0.3635857403278351,0.6257290840148926
1683586973810992000,9.3169921875,-0.16387882828712463,0.1599591225385666,0.6986200213432312
1683586973820998000,9.326997802734375,-0.11456615477800369,0.01952311396598816,0.7296056747436523
1683586973831005000,9.3370048828125,-0.06446197628974915,-0.05520651862025261,0.7094745635986328
1683586973841012000,9.347011962890624,-0.07750935852527618,-0.06917771697044373,0.6560807228088379
1683586973851019000,9.35701904296875,-0.14999181032180786,-0.058941856026649475,0.5819823145866394
1683586973861024800,9.367024658203125,-0.24671295285224915,-0.048396144062280655,0.49723488092422485
1683586973871032000,9.377031982421874,-0.3203251361846924,-0.05354110524058342,0.4664101004600525
1683586973881038800,9.387038818359375,-0.34450748562812805,-0.08127087354660034,0.5224975347518921
1683586973891046100,9.397046142578125,-0.34513118863105774,-0.14525598287582397,0.596411943435669
1683586973901053000,9.407052978515624,-0.35562509298324585,-0.2207072526216507,0.6350528001785278
1683586973911059000,9.417058837890625,-0.3783884644508362,-0.2899334728717804,0.6260545253753662
1683586973921066000,9.42706591796875,-0.40057817101478577,-0.3536418080329895,0.5600174069404602
1683586973931073000,9.437072998046874,-0.41605913639068604,-0.3891603946685791,0.47365835309028625
1683586973941079800,9.447079833984375,-0.4247826039791107,-0.37830814719200134,0.4022941291332245
1683586973951086000,9.457086181640625,-0.4113270044326782,-0.30336785316467285,0.3847289979457855
1683586973961092900,9.4670927734375,-0.3774568736553192,-0.1886526644229889,0.4248020648956299
1683586973971100000,9.477099853515625,-0.31440892815589905,-0.07919648289680481,0.510256290435791
1683586973981107000,9.48710693359375,-0.23471678793430328,-0.003589050844311714,0.6075140833854675
1683586973991113000,9.497113037109376,-0.15752585232257843,0.03677541762590408,0.6878533959388733
1683586974001119700,9.50711962890625,-0.10186848789453506,0.0545564740896225,0.7239452600479126
1683586974011127000,9.517126953125,-0.07301073521375656,0.07155303657054901,0.7197086811065674
1683586974021133800,9.5271337890625,-0.06896083056926727,0.08567531406879425,0.692812442779541
1683586974031141000,9.53714111328125,-0.09178971499204636,0.08138389140367508,0.661136269569397
1683586974041147000,9.54714697265625,-0.12237053364515305,0.038579970598220825,0.6305328607559204
1683586974051154000,9.55715380859375,-0.1575911045074463,-0.027964165434241295,0.5982378125190735
1683586974061161000,9.567160888671875,-0.20176814496517181,-0.10000809282064438,0.566724956035614
1683586974071168000,9.57716796875,-0.24199067056179047,-0.16430878639221191,0.5254361033439636
1683586974081174000,9.587174072265626,-0.26789548993110657,-0.21307943761348724,0.4652465879917145
1683586974091179800,9.5971796875,-0.271674782037735,-0.22208517789840698,0.404231458902359
1683586974101186800,9.607186767578124,-0.25438371300697327,-0.18987394869327545,0.36340105533599854
1683586974111193900,9.61719384765625,-0.22445565462112427,-0.13236618041992188,0.3566632568836212
1683586974121201000,9.627200927734375,-0.19023852050304413,-0.08289631456136703,0.37383827567100525
1683586974131206700,9.63720654296875,-0.15392178297042847,-0.05427132546901703,0.39850765466690063
1683586974141214000,9.6472138671875,-0.12697355449199677,-0.03570125997066498,0.4147033393383026
1683586974151220700,9.657220703125,-0.10052463412284851,-0.010807894170284271,0.41706371307373047
1683586974161228000,9.66722802734375,-0.08164817094802856,0.038250382989645004,0.40457963943481445
1683586974171233800,9.67723388671875,-0.07492422312498093,0.0907367616891861,0.38222238421440125
1683586974181240800,9.68724072265625,-0.07921001315116882,0.11894086003303528,0.35309675335884094
1683586974191248000,9.697247802734376,-0.08731800317764282,0.11680261045694351,0.327172189950943
1683586974201255000,9.7072548828125,-0.09048665314912796,0.10056435316801071,0.315416544675827
1683586974211260700,9.7172607421875,-0.09071861207485199,0.08017465472221375,0.3139936327934265
1683586974221268000,9.72726806640625,-0.08630838990211487,0.056393224745988846,0.3112448751926422
1683586974231274800,9.737274658203125,-0.07679557800292969,0.04625670239329338,0.2966502010822296
1683586974241281800,9.74728173828125,-0.0730927512049675,0.062075547873973846,0.27486860752105713
1683586974251288800,9.757288818359376,-0.07472659647464752,0.0867750346660614,0.2524453103542328
1683586974261294800,9.767294921875,-0.08201567083597183,0.09314407408237457,0.22144632041454315
1683586974271301600,9.777301513671874,-0.07818471640348434,0.06975459307432175,0.1873173862695694
1683586974281309000,9.787308837890626,-0.06257723271846771,0.0289265438914299,0.15288501977920532
1683586974291315700,9.797315673828125,-0.03806416690349579,-0.001313650282099843,0.11654645949602127
1683586974301321700,9.80732177734375,-0.014587873592972755,-0.0012291381135582924,0.07965388894081116
1683586974311328800,9.817328857421876,0.003021479584276676,0.012848331592977047,0.03851737082004547
1683586974321335800,9.827335693359375,0.013070656917989254,0.0193933118134737,-0.012350127100944519
1683586974331342800,9.8373427734375,0.018929345533251762,0.0055563258938491344,-0.063766710460186
1683586974341350000,9.847349853515626,0.03023046813905239,-0.014340149238705635,-0.09931565076112747
1683586974351356000,9.85735595703125,0.059424303472042084,-0.024206629022955894,-0.11025245487689972
1683586974361363000,9.867363037109374,0.10996709018945694,-0.014453498646616936,-0.11142893880605698
1683586974371369700,9.87736962890625,0.16439038515090942,0.022555651143193245,-0.12203151732683182
1683586974381376800,9.887376708984375,0.2058342546224594,0.08428381383419037,-0.14714856445789337
1683586974391383000,9.897383056640624,0.2306637018918991,0.14514583349227905,-0.17163605988025665
1683586974401389800,9.907389892578125,0.24685221910476685,0.1844729334115982,-0.1855727732181549
1683586974411396900,9.91739697265625,0.25467872619628906,0.18919044733047485,-0.17723707854747772
1683586974421404000,9.92740380859375,0.25318440794944763,0.15839968621730804,-0.1584465503692627
1683586974431410700,9.93741064453125,0.24388518929481506,0.10394816845655441,-0.142361581325531
1683586974441416700,9.947416748046875,0.23155559599399567,0.052806396037340164,-0.1544603854417801
1683586974451424000,9.957424072265624,0.2170134037733078,0.03117487020790577,-0.20655475556850433
1683586974461430800,9.9674306640625,0.2025580108165741,0.03825099393725395,-0.2887978255748749
1683586974471437800,9.977437744140625,0.19200895726680756,0.05304032936692238,-0.38334164023399353
1683586974481443800,9.98744384765625,0.18912425637245178,0.060290053486824036,-0.45405903458595276
1683586974491451000,9.997450927734375,0.19174133241176605,0.057583216577768326,-0.49224263429641724
1683586974501458000,10.0074580078125,0.19560769200325012,0.05210466310381889,-0.5063128471374512
1683586974511465000,10.01746484375,0.19877180457115173,0.04961647465825081,-0.5053365230560303
1683586974521470700,10.027470703125,0.201995849609375,0.052510328590869904,-0.504199743270874
1683586974531478000,10.03747802734375,0.20897892117500305,0.05856529250741005,-0.5097290277481079
1683586974541484800,10.04748486328125,0.21864135563373566,0.07214727252721786,-0.5276503562927246
1683586974551491800,10.057491943359375,0.2333180457353592,0.08416878432035446,-0.5494245886802673
1683586974561499000,10.067498779296875,0.24817606806755066,0.08284874260425568,-0.5648194551467896
1683586974571505000,10.0775048828125,0.2679641544818878,0.08882221579551697,-0.5751909017562866
1683586974581511700,10.08751171875,0.2927185297012329,0.13317449390888214,-0.5756545066833496
1683586974591519000,10.09751904296875,0.3226228952407837,0.20531579852104187,-0.5742276310920715
1683586974601525800,10.10752587890625,0.3406729996204376,0.2630147933959961,-0.574090301990509
1683586974611531800,10.11753173828125,0.34270021319389343,0.29617488384246826,-0.5548319220542908
1683586974621538800,10.127538818359374,0.33074793219566345,0.32571640610694885,-0.5056023597717285
1683586974631545900,10.1375458984375,0.32259413599967957,0.3687531054019928,-0.4372880160808563
1683586974641553000,10.147552978515625,0.31731948256492615,0.41418707370758057,-0.3749479353427887
1683586974651560000,10.157559814453125,0.30721837282180786,0.46290960907936096,-0.33807381987571716
1683586974661565700,10.167565673828125,0.28589341044425964,0.49561062455177307,-0.34201884269714355
1683586974671573000,10.177572998046875,0.2552846372127533,0.510831892490387,-0.37954676151275635
1683586974681579800,10.187579833984374,0.21857959032058716,0.5059553384780884,-0.43648433685302734
1683586974691586800,10.1975869140625,0.17709633708000183,0.46361905336380005,-0.5046566724777222
1683586974701592800,10.2075927734375,0.13069237768650055,0.360517680644989,-0.5725992321968079
1683586974711599900,10.217599853515624,0.06817067414522171,0.21460682153701782,-0.6193904280662537
1683586974721606700,10.227606689453125,0.0024001661222428083,0.06761215627193451,-0.6358343362808228
1683586974731614000,10.237614013671875,-0.04167328402400017,-0.037358470261096954,-0.6246647834777832
1683586974741619700,10.24761962890625,-0.050916850566864014,-0.0842936635017395,-0.599768340587616
1683586974751626800,10.257626708984375,-0.017475007101893425,-0.1014351025223732,-0.5820143818855286
1683586974761633800,10.2676337890625,0.0447782538831234,-0.10438118129968643,-0.5787663459777832
1683586974771640800,10.277640869140624,0.11754646897315979,-0.10692210495471954,-0.602253258228302
1683586974781648000,10.28764794921875,0.17538125813007355,-0.10090938955545425,-0.6284685730934143
1683586974791654000,10.29765380859375,0.2089109867811203,-0.08370084315538406,-0.6336609721183777
1683586974801660700,10.30766064453125,0.2192392796278,-0.047320470213890076,-0.6042592525482178
1683586974811668000,10.31766796875,0.22754646837711334,0.005457788705825806,-0.5195382237434387
1683586974821674800,10.3276748046875,0.26320862770080566,0.02977081947028637,-0.4180724024772644
1683586974831680800,10.3376806640625,0.3142116367816925,0.02976948767900467,-0.3320477604866028
1683586974841687800,10.347687744140625,0.3415268361568451,0.043187156319618225,-0.27933892607688904
1683586974851694800,10.35769482421875,0.3437013030052185,0.05747901275753975,-0.276095449924469
1683586974861702000,10.367701904296876,0.3185034990310669,0.05379853770136833,-0.3327272832393646
1683586974871709000,10.377708984375,0.26446637511253357,0.026181023567914963,-0.4060819149017334
1683586974881715000,10.38771484375,0.19990526139736176,-0.013113773427903652,-0.4510849714279175
1683586974891722000,10.397721923828126,0.14175301790237427,-0.05535710230469704,-0.4487517774105072
1683586974901728800,10.407728759765625,0.11295545101165771,0.16055619716644287,-0.45194026827812195
1683586974911735800,10.41773583984375,0.08556297421455383,2.474470376968384,-0.6196879744529724
1683586974921742000,10.4277421875,-0.050635628402233124,5.099454402923584,-0.6780329346656799
1683586974931748900,10.437748779296875,-0.05729033425450325,3.676131010055542,-0.7000517249107361
1683586974941755600,10.447755615234374,-0.005369070451706648,2.1476714611053467,-0.46412158012390137
1683586974951763000,10.457762939453126,0.05749884247779846,2.005441188812256,0.02686891332268715
1683586974961769000,10.46776904296875,0.047042205929756165,2.116466760635376,0.24385489523410797
1683586974971775700,10.477775634765624,-0.044481851160526276,1.9163795709609985,0.033932290971279144
1683586974981783000,10.487782958984376,-0.17692485451698303,2.078228235244751,-0.17788690328598022
1683586974991789800,10.497789794921875,-0.2658917307853699,2.262760639190674,-0.2344180941581726
1683586975001796900,10.507796875,-0.27419811487197876,2.2830071449279785,-0.19893041253089905
1683586975011803000,10.517802978515626,-0.24501092731952667,2.2677714824676514,-0.10832195729017258
1683586975021810000,10.527809814453125,-0.2227352410554886,2.303208351135254,-0.012799588963389397
1683586975031817000,10.53781689453125,-0.1965837925672531,2.2658379077911377,0.011883918195962906
1683586975041823700,10.54782373046875,-0.1749676913022995,2.1662614345550537,0.005074191838502884
1683586975051829800,10.557829833984375,-0.14692381024360657,2.0142667293548584,0.020291760563850403
1683586975061837000,10.567837158203124,-0.11970868706703186,1.7235729694366455,0.06796464323997498
1683586975071843800,10.57784375,-0.07823341339826584,1.2397044897079468,0.14393319189548492
1683586975081851000,10.587850830078125,-0.04446906968951225,0.7699177861213684,0.23175768554210663
1683586975091857700,10.597857666015624,-0.01964707300066948,0.4419540762901306,0.22579778730869293
1683586975101863700,10.60786376953125,-0.004754156339913607,0.2888791263103485,0.12555591762065887
1683586975111870700,10.61787060546875,-0.004746433347463608,0.23254261910915375,0.04046712443232536
1683586975121877800,10.627877685546874,-0.003970110323280096,0.11257749795913696,0.0109800323843956
1683586975131884500,10.637884521484375,-0.010820293799042702,-0.06703300774097443,-0.002958419267088175
1683586975141890800,10.647890869140625,-0.022417547181248665,-0.21950244903564453,-0.04082793742418289
1683586975151897600,10.657897705078126,-0.025710012763738632,-0.4140189290046692,-0.07761044800281525
1683586975161904600,10.667904541015625,-0.034346144646406174,-0.645587682723999,-0.09787991642951965
1683586975171911700,10.67791162109375,-0.04793332889676094,-0.8865092396736145,-0.10866092890501022
1683586975181917700,10.687917724609376,-0.06764420866966248,-1.181038498878479,-0.12006351351737976
1683586975191924500,10.697924560546875,-0.0772867202758789,-1.5082318782806396,-0.11275579035282135
1683586975201931800,10.707931884765625,-0.08717740327119827,-1.8515567779541016,-0.07921069115400314
1683586975211938600,10.7179384765625,-0.09792885184288025,-2.1779117584228516,-0.03016192652285099
1683586975221945900,10.72794580078125,-0.11480368673801422,-2.4778902530670166,0.011207129806280136
1683586975231951600,10.73795166015625,-0.12622731924057007,-2.7406222820281982,0.03519235551357269
1683586975241958700,10.747958740234376,-0.12670031189918518,-2.9551448822021484,0.03612516075372696
1683586975251965700,10.757965576171875,-0.12466219067573547,-3.1348726749420166,0.02765524387359619
1683586975261972700,10.76797265625,-0.09089408069849014,-3.2838382720947266,0.032373614609241486
1683586975271978500,10.777978515625,-0.03360576555132866,-3.416508197784424,0.06797075271606445
1683586975281985800,10.78798583984375,0.041303910315036774,-3.5179946422576904,0.15517565608024597
1683586975291992600,10.79799267578125,0.11628041416406631,-3.5021462440490723,0.2745044231414795
1683586975301999600,10.80799951171875,0.18536946177482605,-3.204251527786255,0.4257790148258209
1683586975312005600,10.818005615234375,0.22183212637901306,-2.4715895652770996,0.6650823950767517
1683586975322012700,10.8280126953125,0.19971776008605957,-1.1351900100708008,0.9533557891845703
1683586975332019500,10.83801953125,0.14728836715221405,0.43379485607147217,1.1382436752319336
1683586975342026800,10.84802685546875,0.13505250215530396,1.4416812658309937,1.0779740810394287
1683586975352033500,10.858033447265624,0.1703076958656311,1.4896190166473389,0.8343440890312195
1683586975362039600,10.86803955078125,0.13330866396427155,1.1930406093597412,0.6838533878326416
1683586975372046600,10.878046630859375,0.04269513860344887,0.8721451163291931,0.6635435819625854
1683586975382053600,10.8880537109375,-0.041397642344236374,0.4981446862220764,0.6776620149612427
1683586975392060700,10.898060791015626,-0.10239148139953613,0.050387442111968994,0.6580066084861755
1683586975402066700,10.908066650390625,-0.17203636467456818,-0.39812710881233215,0.5870510935783386
1683586975412073700,10.91807373046875,-0.2896634042263031,-0.7316291928291321,0.49087023735046387
1683586975422080800,10.928080810546875,-0.407510906457901,-0.866450846195221,0.36621755361557007
1683586975432087600,10.938087646484375,-0.4859788119792938,-0.7922059297561646,0.2469465434551239
1683586975442093600,10.948093505859376,-0.5072950720787048,-0.582972526550293,0.16467808187007904
1683586975452100900,10.958100830078125,-0.4686299264431,-0.37356045842170715,0.13819295167922974
1683586975462107600,10.968107666015625,-0.41170936822891235,-0.24473227560520172,0.1771465539932251
1683586975472114700,10.97811474609375,-0.3674561679363251,-0.2261820286512375,0.275778591632843
1683586975482121700,10.988121826171875,-0.3259468078613281,-0.2966621518135071,0.3971518576145172
1683586975492127700,10.998127685546875,-0.28456953167915344,-0.4070946276187897,0.49927476048469543
1683586975502134800,11.008134765625,-0.249410480260849,-0.46596789360046387,0.5488343238830566
1683586975512141800,11.018141845703125,-0.23629415035247803,-0.43457749485969543,0.553136944770813
1683586975522148600,11.028148681640625,-0.23213458061218262,-0.37169837951660156,0.529914140701294
1683586975532155000,11.03815478515625,-0.22698402404785156,-0.3443647623062134,0.49095526337623596
1683586975542161700,11.04816162109375,-0.21913409233093262,-0.3785655200481415,0.4466225802898407
1683586975552168700,11.058168701171875,-0.2194691151380539,-0.45544031262397766,0.4144537150859833
1683586975562175700,11.06817578125,-0.2268199771642685,-0.5474505424499512,0.3929540812969208
1683586975572181800,11.078181640625,-0.23805025219917297,-0.6092228293418884,0.36185023188591003
1683586975582188500,11.0881884765625,-0.25384169816970825,-0.6080701947212219,0.3344210386276245
1683586975592195800,11.09819580078125,-0.27440956234931946,-0.5589982271194458,0.33117011189460754
1683586975602202600,11.10820263671875,-0.3024100661277771,-0.4944014847278595,0.36914780735969543
1683586975612210000,11.1182099609375,-0.3242727518081665,-0.451176255941391,0.43265220522880554
1683586975622215700,11.128215576171876,-0.32626110315322876,-0.44307684898376465,0.4743582606315613
1683586975632222700,11.13822265625,-0.31435251235961914,-0.4444289207458496,0.4847845435142517
1683586975642229800,11.148229736328124,-0.29877912998199463,-0.4326569437980652,0.4686129689216614
1683586975652236800,11.15823681640625,-0.29785820841789246,-0.4012068808078766,0.42800456285476685
1683586975662242600,11.16824267578125,-0.3133963942527771,-0.3734322488307953,0.36921003460884094
1683586975672249900,11.178249755859374,-0.33805033564567566,-0.367102712392807,0.31558194756507874
1683586975682256600,11.188256591796875,-0.3595287501811981,-0.37716245651245117,0.30009156465530396
1683586975692263700,11.198263671875,-0.36874353885650635,-0.39066174626350403,0.3351992070674896
1683586975702270700,11.208270751953124,-0.355577677488327,-0.3972824811935425,0.38795962929725647
1683586975712276700,11.21827685546875,-0.3135972023010254,-0.3720170855522156,0.42102012038230896
1683586975722283500,11.228283447265625,-0.2587382197380066,-0.2985842227935791,0.42798829078674316
1683586975732290800,11.238290771484374,-0.2065245509147644,-0.1944599449634552,0.4182208776473999
1683586975742297600,11.248297607421875,-0.16387376189231873,-0.09758052229881287,0.39667245745658875
1683586975752303600,11.2583037109375,-0.1362711638212204,-0.040363043546676636,0.36910632252693176
1683586975762310700,11.268310546875,-0.12066156417131424,-0.015498992055654526,0.3423096537590027
1683586975772317700,11.278317626953125,-0.10921849310398102,0.004582041408866644,0.32096201181411743
1683586975782324700,11.28832470703125,-0.09547315537929535,0.03615792840719223,0.3138223886489868
1683586975792330800,11.298330810546876,-0.07232123613357544,0.09071118384599686,0.32857418060302734
1683586975802337500,11.308337646484375,-0.05147877708077431,0.15528981387615204,0.3648073971271515
1683586975812344800,11.3183447265625,-0.033914964646101,0.19617758691310883,0.4086241126060486
1683586975822351600,11.3283515625,-0.03514586761593819,0.18635690212249756,0.4506683945655823
1683586975832358700,11.338358642578125,-0.053736597299575806,0.12354224920272827,0.4743279218673706
1683586975842364700,11.34836474609375,-0.08225531876087189,0.013401013799011707,0.470233678817749
1683586975852371700,11.358371826171876,-0.10287484526634216,-0.13235273957252502,0.4252491593360901
1683586975862378500,11.36837841796875,-0.11674486100673676,-0.2653612792491913,0.33386966586112976
1683586975872385800,11.3783857421875,-0.12842415273189545,-0.338980108499527,0.22404728829860687
1683586975882391800,11.388391845703126,-0.13514971733093262,-0.34528648853302,0.11986033618450165
1683586975892398600,11.398398681640625,-0.13286125659942627,-0.29255563020706177,0.041456349194049835
1683586975902405600,11.408405517578124,-0.11396931856870651,-0.21031124889850616,0.005066734738647938
1683586975912412700,11.41841259765625,-0.08533767610788345,-0.10778460651636124,0.017699439078569412
1683586975922418700,11.428418701171875,-0.05297386646270752,0.004124957602471113,0.06906864792108536
1683586975932425700,11.43842578125,-0.014611829072237015,0.10824097692966461,0.13821522891521454
1683586975942432800,11.448432861328126,0.030281338840723038,0.15263693034648895,0.18278169631958008
1683586975952439800,11.458439697265625,0.06086667627096176,0.14947709441184998,0.19449879229068756
1683586975962446600,11.468446533203124,0.06357218325138092,0.11546213924884796,0.17934328317642212
1683586975972452600,11.47845263671875,0.05349717661738396,0.07851530611515045,0.1426270753145218
1683586975982460000,11.4884599609375,0.03417326882481575,0.0722687840461731,0.10388816893100739
1683586975992466700,11.498466796875,0.02418295294046402,0.10878817737102509,0.09018461406230927
1683586976002473500,11.508473388671876,0.015296511352062225,0.1442210078239441,0.10752157866954803
1683586976012479700,11.518479736328125,-0.0016089684795588255,0.142902210354805,0.148712158203125
1683586976022486800,11.52848681640625,-0.026658078655600548,0.11461938917636871,0.20102083683013916
1683586976032493600,11.53849365234375,-0.0468704029917717,0.07757321745157242,0.24296827614307404
1683586976042500600,11.54850048828125,-0.05679260566830635,0.05600646883249283,0.23834176361560822
1683586976052506600,11.558506591796874,-0.05821686610579491,0.06303268671035767,0.1788288950920105
1683586976062513700,11.568513671875,-0.06511548906564713,0.07595814019441605,0.09192507714033127
1683586976072520700,11.578520751953125,-0.0778840184211731,0.07472323626279831,0.00940702948719263
1683586976082527700,11.58852783203125,-0.08097726851701736,0.08536477386951447,-0.04638025164604187
1683586976092535000,11.59853515625,-0.0784054547548294,0.09308740496635437,-0.05060349032282829
1683586976102541000,11.608541015625,-0.07265516370534897,0.10391014069318771,0.007329708896577358
1683586976112547800,11.6185478515625,-0.05984269827604294,0.1289699524641037,0.1166125237941742
1683586976122555100,11.62855517578125,-0.03840133175253868,0.16629435122013092,0.20767448842525482
1683586976132562000,11.63856201171875,-0.02611217461526394,0.21069590747356415,0.24005985260009766
1683586976142568000,11.64856787109375,-0.02366417646408081,0.24936532974243164,0.2093876153230667
1683586976152575000,11.658574951171875,-0.02667327970266342,0.24542732536792755,0.13461270928382874
1683586976162582000,11.66858203125,-0.03331711143255234,0.19113117456436157,0.05164816603064537
1683586976172588800,11.6785888671875,-0.03891374543309212,0.1202428936958313,-0.002894173376262188
1683586976182595000,11.688594970703125,-0.04367224872112274,0.06813954561948776,-0.007724271155893803
1683586976192601900,11.698601806640625,-0.042130276560783386,0.06166379898786545,0.03246788680553436
1683586976202609000,11.70860888671875,-0.03417272865772247,0.09553980082273483,0.09773949533700943
1683586976212616000,11.718615966796875,-0.01623127982020378,0.1332368552684784,0.14799679815769196
1683586976222623000,11.728623046875,0.0035160391125828028,0.15961593389511108,0.15893635153770447
1683586976232628700,11.738628662109376,0.013041634112596512,0.18907955288887024,0.13204002380371094
1683586976242636000,11.748635986328125,0.00823944341391325,0.20013031363487244,0.08229881525039673
1683586976252642800,11.758642822265625,0.0030177831649780273,0.1757967323064804,0.03835613280534744
1683586976262650000,11.768650146484376,0.004735230468213558,0.12246661633253098,0.016495173797011375
1683586976272656000,11.77865576171875,0.00628279335796833,0.06341048330068588,0.014563050121068954
1683586976282663000,11.788662841796874,-0.0016175040509551764,0.016190702095627785,0.01860559731721878
1683586976292670000,11.798669921875,-0.023787787184119225,-0.015010626055300236,0.0216719601303339
1683586976302677000,11.808677001953125,-0.04829363897442818,-0.02298307977616787,0.025375397875905037
1683586976312682800,11.818682861328124,-0.058273304253816605,-0.02750352956354618,0.02359028160572052
1683586976322690000,11.82868994140625,-0.048176709562540054,-0.03786768391728401,0.013395942747592926
1683586976332696800,11.83869677734375,-0.02576967142522335,-0.04355645924806595,-0.0032227146439254284
1683586976342703900,11.848703857421874,-0.00009385799057781696,-0.040401868522167206,-0.034907374531030655
1683586976352710000,11.8587099609375,0.021405575796961784,-0.02989783324301243,-0.05869739502668381
1683586976362717000,11.868717041015625,0.03815525397658348,-0.014878479763865471,-0.06333031505346298
1683586976372723700,11.8787236328125,0.042096734046936035,-0.0052263857796788216,-0.035196948796510696
1683586976382731000,11.88873095703125,0.03896777704358101,-0.014160307124257088,0.01168285682797432
1683586976392737800,11.89873779296875,0.03360842913389206,-0.02356153167784214,0.059016816318035126
1683586976402743800,11.908743896484374,0.029635271057486534,-0.019685491919517517,0.08821175247430801
1683586976412750800,11.918750732421875,0.024760356172919273,0.002061348408460617,0.09276389330625534
1683586976422758000,11.9287578125,0.02216561697423458,0.022840330377221107,0.07530828565359116
1683586976432765000,11.938764892578124,0.018080860376358032,0.030660970136523247,0.029390059411525726
1683586976442771000,11.94877099609375,0.007907036691904068,0.014454049989581108,-0.02729009836912155
1683586976452778000,11.958778076171875,-0.017029471695423126,-0.019437337294220924,-0.06495891511440277
1683586976462785000,11.968784912109374,-0.04085301607847214,-0.05582617595791817,-0.0700123980641365
1683586976472791800,11.978791748046875,-0.05958489328622818,-0.08336272835731506,-0.04724396765232086
1683586976482797800,11.9887978515625,-0.06249544769525528,-0.08003254979848862,-0.015104234218597412
1683586976492805000,11.99880517578125,-0.05731799453496933,-0.05744042247533798,0.00701837707310915
1683586976502812000,12.00881201171875,-0.049460891634225845,-0.03524481877684593,0.010692426934838295
1683586976512818700,12.018818603515625,-0.047038476914167404,-0.026524297893047333,0.0015652417205274105
1683586976522826000,12.028825927734376,-0.046557243913412094,-0.028629526495933533,-0.018352806568145752
1683586976532832000,12.03883203125,-0.042596060782670975,-0.036168135702610016,-0.041543878614902496
1683586976542838800,12.0488388671875,-0.02703280560672283,-0.04262888431549072,-0.059078313410282135
1683586976552846000,12.05884619140625,-0.00538876187056303,-0.03449878841638565,-0.06103919818997383
1683586976562852900,12.068852783203125,0.013333266600966454,-0.01469322107732296,-0.04286950081586838
1683586976572859100,12.078859130859374,0.03161320462822914,0.011099494062364101,-0.007457180414348841
1683586976582866000,12.088865966796876,0.0450238361954689,0.036019906401634216,0.026357360184192657
1683586976592873000,12.098873046875,0.05389562249183655,0.06459882110357285,0.05036469176411629
1683586976602880000,12.1088798828125,0.05270460247993469,0.07682554423809052,0.04984835907816887
1683586976612886000,12.118885986328126,0.03938533365726471,0.07130401581525803,0.0329575277864933
1683586976622892800,12.128892822265625,0.02126387692987919,0.05024629458785057,0.004530264064669609
1683586976632900000,12.138900146484374,-0.0004677835386246443,0.011498898267745972,-0.02206006832420826
1683586976642907000,12.148906982421876,-0.007079343311488628,-0.02781096287071705,-0.04054246097803116
1683586976652914000,12.158913818359375,-0.016914663836359978,-0.053848955780267715,-0.04157896339893341
1683586976662920000,12.168919921875,-0.019212158396840096,-0.05723517760634422,-0.03127935156226158
1683586976672927000,12.178927001953125,-0.015378538519144058,-0.03579540178179741,-0.019499924033880234
1683586976682934000,12.18893408203125,-0.007144852075725794,0.00529825035482645,-0.008898036554455757
1683586976692941000,12.198941162109374,0.00913957878947258,0.04335668683052063,-0.002230280078947544
1683586976702946800,12.20894677734375,0.024018926545977592,0.05867376551032066,-0.005455830600112677
1683586976712954000,12.2189541015625,0.03901385888457298,0.07002868503332138,-0.007595413830131292
1683586976722961000,12.2289609375,0.05394086614251137,0.08988194167613983,-0.011209942400455475
1683586976732968000,12.238968017578125,0.06898746639490128,0.11854660511016846,-0.012956175953149796
1683586976742974000,12.248973876953125,0.07932263612747192,0.14768773317337036,-0.008243493735790253
1683586976752981000,12.25898095703125,0.08490435779094696,0.15972521901130676,0.005016651935875416
1683586976762987800,12.26898779296875,0.07879137992858887,0.15085338056087494,0.01653832383453846
1683586976772995000,12.2789951171875,0.05831566080451012,0.1304359883069992,0.02599014900624752
1683586976783000800,12.289000732421876,0.02992982603609562,0.1026509702205658,0.028307631611824036
1683586976793007900,12.2990078125,-0.0006429955828934908,0.06846850365400314,0.018358061090111732
1683586976803015000,12.309014892578125,-0.02554304338991642,0.025020657107234,0.00409263651818037
1683586976813022000,12.31902197265625,-0.04659400135278702,-0.015673775225877762,-0.007828472182154655
1683586976823029000,12.329029052734375,-0.05978140980005264,-0.051672834903001785,-0.01810445263981819
1683586976833035000,12.339034912109375,-0.06903216242790222,-0.08268747478723526,-0.029870562255382538
1683586976843041800,12.349041748046876,-0.07197018712759018,-0.1045057475566864,-0.035657212138175964
1683586976853049000,12.359049072265625,-0.07186126708984375,-0.11486517637968063,-0.02883419394493103
1683586976863056000,12.369055908203125,-0.06343130022287369,-0.1200377345085144,-0.006197019014507532
1683586976873062000,12.379061767578126,-0.050673432648181915,-0.1239994466304779,0.010327629745006561
