time,seconds_elapsed,z,y,x
1683586964504694800,0.01069482421875,0.9584604162633419,0.32115093924105165,0.21254443404972553
1683586964514700500,0.020700439453125,0.9226374077320099,0.23805004670619964,0.13106062132269145
1683586964524707800,0.030707763671875,0.8862310463547706,0.12145078919529914,-0.008015256412327289
1683586964534714600,0.040714599609375,0.8987801468044518,-0.07210603578984737,-0.23453568190969526
1683586964544721700,0.0507216796875,0.8750456354737282,-0.24678923347890375,-0.442168597716093
1683586964554727700,0.060727783203125,0.7852139733791351,-0.38419396313130855,-0.5876916788291185
1683586964564734700,0.070734619140625,0.6453782171875238,-0.4085205951362848,-0.6248897751059382
1683586964574741500,0.080741455078125,0.5157575655400752,-0.254123814150691,-0.5671265182495117
1683586964584748800,0.090748779296875,0.4410854786545038,-0.12392507035434246,-0.47840128302685914
1683586964594754800,0.1007548828125,0.43033904371261594,-0.19848025286197662,-0.45822424498200415
1683586964604761600,0.11076171875,0.45438861234188077,-0.366208809107542,-0.5310799300953746
1683586964614768600,0.1207685546875,0.4687444699525833,-0.5857482166111468,-0.6571753302261233
1683586964624775700,0.130775634765625,0.42806759164929387,-0.7851075903952122,-0.8358361993744969
1683586964634782700,0.14078271484375,0.2766261533379555,-0.8149924410492181,-1.0430991858899592
1683586964644788700,0.150788818359375,0.0485942272990942,-0.6067962653368711,-1.2238009132161736
1683586964654795500,0.16079541015625,-0.1171177284270525,-0.25166589960455893,-1.2503028434336185
1683586964664802800,0.170802734375,-0.4043260660558939,-0.19576807129383086,-0.7215069326221942
1683586964674809600,0.1808095703125,-0.6224632055461407,-0.2414928806364536,-0.014611878198385237
1683586964684815600,0.190815673828125,-0.5242196889370679,-0.20873101324141025,0.3389823640078306
1683586964694823000,0.200822998046875,-0.23488193806409835,-0.17329378915727137,0.20780191569775341
1683586964704829700,0.21082958984375,0.07884265056848526,-0.17808686865270137,-0.09625321957468987
1683586964714836500,0.22083642578125,0.28002631717026233,-0.1791962911993265,-0.1407148771136999
1683586964724843800,0.23084375,0.4224596886396408,-0.09530395602583884,-0.030693244427442548
1683586964734849800,0.240849853515625,0.5908271273106336,-0.0028121348112821578,0.07750203134818003
1683586964744856600,0.250856689453125,0.7878712098896503,0.06185469088852405,0.13145575812011956
1683586964754863600,0.260863525390625,0.9719979432284831,0.13923720577657223,0.38167934996187686
1683586964764870700,0.27087060546875,1.0611819550693034,0.07357377025485039,0.3462976554572582
1683586964774876700,0.280876708984375,0.7231926937520503,-0.19110124852657318,0.03132540485113859
1683586964784883700,0.2908837890625,-0.15702946757674216,-0.6067793142020702,-1.2101020582094788
1683586964794890800,0.300890869140625,0.2608896550238132,-0.6351216115891933,-1.4356488894343375
1683586964804897800,0.310897705078125,0.38974516751766203,-0.601841273277998,-1.2683484954729676
1683586964814903800,0.32090380859375,0.455667546236515,-0.48318683680295943,-1.1704019159838557
1683586964824910600,0.33091064453125,0.5495470224171877,-0.1998965494006872,-1.0519161140739917
1683586964834918000,0.34091796875,0.7243149757802486,0.0230792622923851,-1.046945047663152
1683586964844924700,0.350924560546875,0.9129226539254188,0.1656973426789045,-0.8304109594553708
1683586964854931700,0.360931640625,1.034600822135806,0.4860451488435268,-0.429059525296092
1683586964864937700,0.370937744140625,1.1340525454908608,0.9026876756370067,-0.057493573069572444
1683586964874944800,0.38094482421875,1.0894202075600623,1.13287941005826,-0.046487318147718906
1683586964884951600,0.39095166015625,0.8385317220687866,1.112477842542529,-0.146078449973464
1683586964894958800,0.400958740234375,0.779262956020236,1.0296943453937768,-0.1323477385237813
1683586964904964600,0.410964599609375,0.8960802401959895,0.9579454524785279,-0.12042232293039559
1683586964914971600,0.4209716796875,0.9883382526546716,0.8577437875390053,-0.41228170123547314
1683586964924978700,0.430978759765625,1.31477326977849,0.8000695972055196,-0.8386199848741293
1683586964934985700,0.44098583984375,1.7447054862558842,0.7403992646187544,-1.1919529457956552
1683586964944991500,0.450991455078125,1.6072516567647457,0.7530769598841667,-1.2253493117019534
1683586964954998800,0.460998779296875,1.1177233419805765,0.8553256204813718,-0.9389379696696997
1683586964965005600,0.471005615234375,0.8147726608186959,0.8748375456809997,-0.5142267027109861
1683586964975012900,0.481012939453125,0.6291092194318771,0.8781967929810285,-0.07761690816581249
1683586964985019600,0.49101953125,0.39036768333017824,1.1137936013162135,-0.20752633189307523
1683586964995025700,0.501025634765625,0.3464928857684135,1.0599825161516665,-0.15299568201601504
1683586965005032700,0.51103271484375,0.3425695748448372,0.9160527686446904,-0.08458703943938016
1683586965015039700,0.521039794921875,0.34465748703479765,0.8342255493074655,-0.006095978787541389
1683586965025046500,0.531046630859375,0.3303115662962198,0.7835024932861328,0.09833908593803643
1683586965035052800,0.541052734375,0.29671149451136586,0.8565209677457809,0.37992081585675475
1683586965045059600,0.5510595703125,0.1962666684657335,1.166669451457262,0.6674689068339764
1683586965055066600,0.561066650390625,0.26036884602010246,1.4088222573071718,0.89742230245471
1683586965065073700,0.57107373046875,0.3756640351951122,1.481478912717104,1.2325909533932804
1683586965075080700,0.581080810546875,0.440367101252079,1.4184756363153457,1.4598526257120072
1683586965085086500,0.59108642578125,0.25819150198102,1.4066495894432067,1.4164305403538047
1683586965095093500,0.601093505859375,-0.14780103598237038,1.3529957406669855,1.2383698290556668
1683586965105100300,0.611100341796875,-0.21500936285853384,1.1297072097629308,1.2995606492079794
1683586965115107600,0.621107666015625,-0.06982230876684188,1.2398048302948474,1.5608808046035467
1683586965125113600,0.631113525390625,-0.03364449544847011,1.616361430415511,2.092341112318635
1683586965135120400,0.641120361328125,0.07113456040918827,1.9260814595818518,2.133083749334514
1683586965145127400,0.65112744140625,0.28280922588706014,1.7714339187055825,1.7640123904027043
1683586965155134500,0.661134521484375,0.2011602857261896,1.4281348605424165,1.0620827033013105
1683586965165140500,0.671140380859375,0.010638882914185523,0.9738163908272981,0.1715273640066385
1683586965175147500,0.6811474609375,-0.1933218471854925,0.4917117963030934,-0.24437705777063964
1683586965185154600,0.691154541015625,-0.7780740384966135,0.5665358588799834,0.1896697544187307
1683586965195161600,0.70116162109375,-1.1130360609471797,0.7159212414443492,0.32017069603204723
1683586965205168400,0.71116845703125,-1.2048662033826112,0.2060109406277537,0.10614742160141467
1683586965215174400,0.72117431640625,-1.375902569001913,-0.682219170589745,-0.18477905976772308
1683586965225181700,0.731181640625,-1.5955436833143233,-1.225323592738807,-0.34247020612359047
1683586965235188500,0.7411884765625,-1.6242343557476997,-1.389125623190403,-0.29728695631176233
1683586965245195300,0.7511953125,-1.7227549357324838,-1.3689941047877072,-0.12623422407954932
1683586965255201500,0.761201416015625,-1.7276701803028582,-1.1490016928195952,-0.12838088071942327
1683586965265208600,0.77120849609375,-1.486303556394577,-0.7312871528804302,-0.12871814984977245
1683586965275215400,0.78121533203125,-1.246415188345313,-0.3774050336435437,0.2181651965409517
1683586965285222700,0.79122265625,-0.7688005987167358,-0.21943243999779224,0.5010588858410716
1683586965295228400,0.801228515625,-0.2705810279548168,-0.2666775907754898,0.38392332949638364
1683586965305235500,0.8112353515625,0.04924713824987411,-0.460850501832366,0.14132599474936722
1683586965315242500,0.821242431640625,0.23620120396912098,-0.4392690768823027,-0.031011808857321736
1683586965325249500,0.83124951171875,0.23997195467948912,-0.3689984398260712,-0.3162333565831184
1683586965335256600,0.841256591796875,0.07016308502852917,-0.45754619958996773,-0.619286329075694
1683586965345262600,0.8512626953125,-0.22949089267551898,-0.49119420216977594,-0.5980728606551885
1683586965355269400,0.861269287109375,-0.26559914788901806,-0.3209399268388748,-0.25543109735697506
1683586965365276700,0.871276611328125,-0.20121113913059233,-0.212386905400455,-0.09740122056603431
1683586965375283500,0.881283447265625,-0.22114333556890486,-0.14429478142708538,-0.20357377660870551
1683586965385289500,0.89128955078125,-0.035713702937960626,0.07899433399885893,-0.19931991855651138
1683586965395296500,0.901296630859375,0.34018823266625403,0.3049086833618581,0.06308803207576275
1683586965405303600,0.911303466796875,0.6478069056391715,0.5471631960205734,0.523766392211616
1683586965415310300,0.921310302734375,0.8818862951487302,0.7855703856013715,0.7169882861539721
1683586965425316600,0.931316650390625,1.3699725944310426,0.6993919853173196,0.5174956413790583
1683586965435323400,0.941323486328125,1.7934633796840904,0.7221200960844755,0.6398568234175444
1683586965445330400,0.951330322265625,1.81825003041625,0.9086946609668433,0.7806117402806878
1683586965455337500,0.96133740234375,1.340743577337265,0.8866315899796784,0.7248162033006549
1683586965465344500,0.971344482421875,0.5458037442356348,0.6314198344618082,0.8042378228008746
1683586965475350300,0.981350341796875,0.42055590084493155,0.2775046897381544,0.8429539224252104
1683586965485357600,0.991357666015625,0.6918424467206001,0.4465051656156778,0.061412207818031306
1683586965495364400,1.0013642578125,0.4923620769053697,0.7497599442906677,-0.11772709249705075
1683586965505371600,1.01137158203125,0.4262421297878027,0.7750231264933943,-0.15106968238949775
1683586965515377400,1.02137744140625,0.294933963444829,0.6174990072675048,-0.5895777117714286
1683586965525384400,1.031384521484375,-0.10192308190464973,0.2948565142944455,-1.0139730446487665
1683586965535391500,1.0413916015625,-0.7307365332603454,-0.08668503463193773,-1.4125915467128156
1683586965545398500,1.0513984375,-1.4096844270944595,-0.553284893771261,-1.5598919396966695
1683586965555404500,1.061404541015625,-2.0756576885432003,-0.6885735080525278,-1.442149065108597
1683586965565411600,1.07141162109375,-2.9259809706926343,-0.3558325226522982,-1.2816145120203495
1683586965575418400,1.08141845703125,-3.587907587099075,-0.27158362912610173,-1.112854859161377
1683586965585425400,1.09142529296875,-3.6825878582686182,-0.35297874065637586,-1.1036954011499882
1683586965595432400,1.101432373046875,-3.143552877515554,-0.42438466535285113,-1.2828338246822357
1683586965605438500,1.1114384765625,-2.2213655516386033,-0.7773126987352966,-1.0527189548894762
1683586965615445200,1.1214453125,-1.3202408875346183,-1.1319207941591738,-1.3915554806858301
1683586965625452500,1.13145263671875,-0.21556348960995672,-1.4157225382149219,-1.841309418964386
1683586965635459300,1.141459228515625,-0.03150222272276878,-1.6553014019235968,-1.968483846503496
1683586965645465300,1.15146533203125,0.17874971647560595,-1.4775120549127458,-2.144251040036976
1683586965655472600,1.16147265625,0.10763736789822578,-1.1453867171928287,-1.9280457453921436
1683586965665479400,1.1714794921875,-0.5339502248346806,-1.043198919937387,-1.729696133172512
1683586965675486500,1.181486572265625,-1.1304320169061421,-1.095904089686647,-1.7632485664233564
1683586965685492500,1.191492431640625,-1.6635165648221968,-0.8104574279680847,-2.0011931069284676
1683586965695499500,1.20149951171875,-2.2289386172413823,-0.8274371312763541,-1.835176907558739
1683586965705506600,1.211506591796875,-2.2803315353482962,-1.2431138087123632,-2.4515365355327723
1683586965715513300,1.221513427734375,-1.9094845450460909,-1.3411971663236617,-2.8894729025065895
1683586965725520400,1.231520263671875,-1.8385224185943603,-1.3307964760795234,-2.4595497461184856
1683586965735526700,1.241526611328125,-1.794409720623493,-0.9604498365148901,-1.7862668923087417
1683586965745533400,1.251533447265625,-1.2982219479501247,-0.34299824858568606,-1.0492693989574908
1683586965755540500,1.26154052734375,-0.7955085729002952,0.17085341026782988,-0.19145634557455776
1683586965765547500,1.271547607421875,-0.6307832901239395,0.5072445156734436,0.47961833066642284
1683586965775553500,1.281553466796875,-0.6637865650594235,0.7016444404192268,0.6477265338793396
1683586965785560300,1.291560302734375,-0.8587894971996546,0.4278394089166075,0.45900414331331846
1683586965795567600,1.301567626953125,-1.2845137405931948,-0.18002485097795723,-0.014158873733878134
1683586965805574400,1.311574462890625,-1.7283324436038732,-0.6669909871239215,-0.32102555929571386
1683586965815580400,1.321580322265625,-2.0659376740396023,-0.951400780075416,-0.5064192438304423
1683586965825587500,1.33158740234375,-2.084462341767549,-1.0213480303961784,-0.5368263647928834
1683586965835594500,1.341594482421875,-1.6093816545307635,-1.0067009347539395,-0.28297537623420355
1683586965845601500,1.3516015625,-0.8990133710384368,-0.8620736334368586,-0.04519289442300796
1683586965855607600,1.361607666015625,-0.3612339433044195,-0.5319149926800281,0.19288477094247936
1683586965865614300,1.3716142578125,0.03210018861591816,-0.3038964010467753,0.4965953305609524
1683586965875621600,1.38162158203125,0.32312486966252324,-0.11858182789655401,0.8753530939877032
1683586965885628400,1.39162841796875,0.4838368251442909,0.1487275762427598,0.9564400163516402
1683586965895635500,1.401635498046875,0.5042594354480505,0.05858714045993983,0.7105925207022578
1683586965905641500,1.411641357421875,0.36701720288097855,-0.20391977703478187,0.337359146720171
1683586965915648500,1.4216484375,0.19215981766879559,-0.3387381069231778,0.08867014403454959
1683586965925655300,1.4316552734375,0.1001554877102375,-0.3847230650393292,0.058662689914181824
1683586965935662600,1.44166259765625,0.10997720902264117,-0.3682001290552318,0.07419672445878386
1683586965945668400,1.45166845703125,0.20120529391169548,-0.3545738278280943,0.001480813142284751
1683586965955675400,1.46167529296875,0.3112631669551134,-0.2554269874374382,0.07284012221805751
1683586965965682400,1.471682373046875,0.27754443722665306,-0.023364164197968783,0.39523309740945695
1683586965975689500,1.481689453125,0.05289104771018028,-0.05967928307820111,0.3684020448355004
1683586965985695500,1.491695556640625,-0.05988543664216995,-0.1113963916381821,0.19647826538980007
1683586965995702500,1.50170263671875,-0.21626783848702907,-0.14395776802506297,0.2088300166364759
1683586966005709300,1.511709228515625,-0.3907926307439804,-0.19283620082670822,0.16734331978764383
1683586966015716600,1.521716552734375,-0.5061036020100116,-0.16354420149931684,0.11025668355114758
1683586966025722600,1.53172265625,-0.41878830665051936,-0.051705016263388096,0.29847068620361383
1683586966035729400,1.5417294921875,-0.14059154299497603,0.12927991191837937,0.375035966424644
1683586966045736400,1.551736328125,-0.06329086117148398,0.1669751440623775,0.3331261122602969
1683586966055743500,1.561743408203125,-0.020389877077937126,0.07985229340190998,0.2200270448900759
1683586966065750300,1.571750244140625,0.12643559187054634,0.11092031682534143,0.23438699415400624
1683586966075756500,1.581756591796875,0.2120218714803457,0.2591983409360051,0.28520386593863367
1683586966085763600,1.591763671875,0.160077164709568,0.31509547512698916,0.2878935434140265
1683586966095771000,1.60177099609375,-0.05343523758947849,0.15301789384782313,0.311766951758787
1683586966105777700,1.611777587890625,-0.14805764109194278,0.2895390273324214,0.29384302640296517
1683586966115783700,1.62178369140625,-0.22147066782712935,0.22413787774238733,0.2412293343294412
1683586966125790700,1.631790771484375,-0.15410627360641954,0.003429389926791191,0.17048223886787892
1683586966135797800,1.6417978515625,-0.009864975932240486,-0.11022373112961649,0.030741905874758956
1683586966145804500,1.651804443359375,-0.060415013474225995,-0.12874094620347024,-0.33192601575553415
1683586966155810800,1.661810791015625,-0.29138123939931393,-0.40885092306919396,-0.2251267061166465
1683586966165817900,1.67181787109375,-0.1358697751700878,-0.25584649149114264,-0.13839227938503026
1683586966175824600,1.68182470703125,0.19131635258197782,0.41928789020311086,0.1597403339706361
1683586966185831700,1.691831787109375,0.37319969090819355,0.4824925709284842,0.6421045292790979
1683586966195838700,1.701838623046875,0.3112801180899143,0.3527995481645688,0.6234099118117242
1683586966205844700,1.7118447265625,0.16988836462795734,0.24275986836496738,0.5809768374908715
1683586966215851800,1.721851806640625,-0.033363924941420556,0.1819073767889291,0.42320685374513267
1683586966225858800,1.73185888671875,-0.17944588204622267,0.0839142182117328,0.14045315743759273
1683586966235865900,1.741865966796875,-0.19157821838855743,-0.13392982008345425,-0.11496522656828165
1683586966245871900,1.751871826171875,-0.23016309284865855,-0.2631900409206748,-0.3274031315036118
1683586966255878700,1.761878662109375,-0.24003508304357526,-0.27759076058641075,-0.25029095798954365
1683586966265886000,1.771885986328125,-0.1158756194114685,-0.2680317818634212,0.020405366908013818
1683586966275892700,1.781892822265625,0.18683774586319923,0.2387990019099787,0.6428012063063681
1683586966285898800,1.791898681640625,0.5463555328994989,0.5829474799767136,0.7930199709549546
1683586966295905800,1.80190576171875,0.8509966513663529,0.5403713804559782,0.4913444242954254
1683586966305912800,1.811912841796875,0.8981453560322522,0.2178168214946985,0.115934363861382
1683586966315919600,1.821919677734375,0.890329713845253,-0.032567331203632054,0.11669205036088824
1683586966325926000,1.83192578125,0.8039917390853166,0.25571225238591433,-0.5888821307227016
1683586966335932700,1.8419326171875,0.7163894434779882,0.051810412866622205,0.3613542086832225
1683586966345939700,1.851939697265625,0.3751677761107683,0.4558402359222993,0.40138445964604613
1683586966355946800,1.86194677734375,-0.10733283199369907,0.8652524096034466,0.5010102243937552
1683586966365952800,1.871952880859375,-0.472208346670866,0.9750175102453679,0.35234219631850716
1683586966375959600,1.88195947265625,-0.5237392119437456,0.5128375499075278,-0.2197292309872806
1683586966385966800,1.891966796875,-0.36221535555720324,-0.008676058408617973,-0.5853355441570282
1683586966395973600,1.9019736328125,-0.2060842981249094,-0.20962423575408756,-0.7397045603528618
1683586966405981000,1.91198095703125,-0.14081307679116725,-0.20863610149957237,-0.8114040611684322
1683586966415986700,1.921986572265625,-0.040324996125698086,-0.0650212651606649,-0.5238803739801049
1683586966425993700,1.93199365234375,0.05664776989519596,0.16159761574249715,-0.1420759363338351
1683586966436000800,1.942000732421875,0.14221885193586348,0.22690109537802636,0.0018389058649539945
1683586966446007800,1.9520078125,0.25759938130676746,0.19617829606253653,-0.15033932228833435
1683586966456013600,1.962013671875,0.2550643098711967,0.2275928039692342,-0.2748199806988239
1683586966466020900,1.972020751953125,0.23729016824960708,0.261370606941171,-0.09939677829742431
1683586966476027600,1.982027587890625,0.32987668201029297,0.28375439778268335,0.16385317611694336
1683586966486034700,1.99203466796875,0.4080728513687849,0.30468970684893426,0.3560626781463623
1683586966496040700,2.002040771484375,0.3417793012499809,0.28450711584612726,0.5769353800803423
1683586966506047700,2.0120478515625,0.20276830544471738,0.23767624495774506,0.587228810557723
1683586966516054500,2.022054443359375,-0.10706629001200199,0.3102275402970612,0.6132949797064066
1683586966526061800,2.032061767578125,-0.3589472936719656,0.4301016182275489,0.8769210739567875
1683586966536068600,2.042068603515625,-0.3944476461201906,0.731239952737838,1.3483736338242889
1683586966546074600,2.05207470703125,-0.21707272512912748,1.1543661424621938,1.8406205599173902
1683586966556081700,2.06208154296875,-0.04138064265847206,1.3775368922054767,2.093946209427714
1683586966566088700,2.072088623046875,-0.08949439296424389,1.4225513613216578,2.111604323454201
1683586966576095700,2.082095703125,-0.19710662642121313,1.2520396040983497,2.0036118585079907
1683586966586101800,2.092101806640625,-0.2332499529480934,1.370003574091196,1.5717343531817196
1683586966596108800,2.10210888671875,-0.1246376025378704,1.3182526363268494,1.2505430819302796
1683586966606115800,2.11211572265625,-0.16898294022083282,1.3478610081270337,1.454270003274083
1683586966616122600,2.12212255859375,-1.1965882043808698,1.2329735229700802,2.3471710289120673
1683586966626128600,2.132128662109375,-1.0818576633512973,0.6671633480161429,2.1032471217364073
1683586966636136000,2.142135986328125,0.5501327133506536,0.43738077891767024,0.7759165682017802
1683586966646142700,2.152142822265625,1.626357923772931,0.572540067730844,0.4112731087148189
1683586966656149500,2.1621494140625,3.9547517715007063,1.647965944468975,-1.587574896392226
1683586966666155800,2.17215576171875,5.8538248126477,2.601439512230456,-3.4846506262421606
1683586966676162800,2.182162841796875,5.859143377321958,3.2860905861422416,-3.3708979903340337
1683586966686169600,2.192169677734375,4.314855833992362,3.8921617520749567,-2.79616567325592
1683586966696176600,2.2021767578125,2.4107003750145433,4.513904826653003,-0.23051263693869112
1683586966706183700,2.21218359375,-0.027471359771490095,6.0281251484990115,4.340163293728232
1683586966716189700,2.222189697265625,-1.5150123490065335,8.017745306533575,6.794315856978296
1683586966726196700,2.23219677734375,-2.266145773607492,9.057899671143293,7.53357998008728
1683586966736203800,2.242203857421875,-2.7057459821403027,9.098322866946459,7.174618657889962
1683586966746210800,2.2522109375,-2.5966654296964404,8.248440898823738,6.040945467105508
1683586966756216800,2.262216796875,-1.9058803830742834,7.27076374091506,5.275259785538911
1683586966766223600,2.2722236328125,-0.9872031111449002,6.5486541662245985,4.8684360574483865
1683586966776231000,2.28223095703125,-0.28530864148735996,6.2094520219862455,4.494792129904032
1683586966786237700,2.29223779296875,0.1251993280738592,6.043554772821069,3.812721135613322
1683586966796243700,2.30224365234375,0.1260311027228832,5.427599633994698,2.8464982686549423
1683586966806250800,2.312250732421875,-0.21541794365942477,4.782619476214051,2.0838971091002225
1683586966816257800,2.3222578125,-0.3771943135023117,4.36755603530556,1.4383575638711452
1683586966826264600,2.3322646484375,-0.31345337047576904,3.8809772179767488,0.6301362243920564
1683586966836270800,2.342270751953125,-0.3148275814384222,3.040169952191412,-0.16942951494455336
1683586966846277600,2.352277587890625,-0.20365560967326163,2.792250253377855,-1.3153192132234572
1683586966856284700,2.36228466796875,0.3497311370372772,2.7750682324305176,-2.7131781779676674
1683586966866291700,2.372291748046875,1.0111720157533883,2.751859206278622,-4.183714256387948
1683586966876297700,2.382297607421875,1.8051175771206616,1.8305206061854957,-5.424979806885123
1683586966886304500,2.392304443359375,2.369290798522532,0.9952385335624218,-6.690613490441441
1683586966896311800,2.402311767578125,2.572548641049862,0.4762462238848209,-7.744338115242123
1683586966906318600,2.412318603515625,1.944792589792609,0.27119068428575993,-8.96670490400195
1683586966916326000,2.422325927734375,1.651604300971329,-0.0200379949003458,-10.524007996249198
1683586966926331600,2.43233154296875,1.8796280437037347,-1.239492111083865,-11.525095255839824
1683586966936338700,2.442338623046875,1.553803559693694,-1.533517727512121,-11.870302193450927
1683586966946345700,2.452345703125,1.696230501422286,-1.8455378503143787,-11.59983222465515
1683586966956352800,2.462352783203125,1.7470421125099063,-2.6572978853136298,-10.815457624709605
1683586966966358800,2.47235888671875,0.889326382021606,-3.473042021512985,-9.692022919344902
1683586966976365800,2.48236572265625,-0.7050237075939774,-4.271476710993051,-8.885752129411697
1683586966986372600,2.49237255859375,-1.7133076006904244,-4.918693249523639,-8.154511153760552
1683586966996379600,2.502379638671875,-2.542689509359002,-5.764436218145489,-7.760649783095717
1683586967006386000,2.512385986328125,-3.245311708769202,-6.312785555210709,-7.544529828646779
1683586967016392700,2.522392822265625,-3.374377064621448,-6.616972500169277,-7.3228838042527435
1683586967026399500,2.5323994140625,-3.7810786276370285,-7.078167869916558,-6.8382871006518595
1683586967036406800,2.54240673828125,-4.740333993670344,-7.309526310029625,-5.789817327639461
1683586967046412800,2.552412841796875,-5.384059182953834,-7.419359726667404,-4.457994723382592
1683586967056419600,2.562419677734375,-5.371707066380977,-7.545997563111782,-2.8550486548572778
1683586967066427000,2.572427001953125,-5.817017469254136,-7.597974418586492,-0.9865426014095544
1683586967076433700,2.58243359375,-6.469018903973698,-7.271312022447586,1.0461813698142766
1683586967086440200,2.592440185546875,-6.660423519361019,-6.566185731261968,3.324920083013177
1683586967096446000,2.602446044921875,-5.94761544150114,-5.9250108109831805,5.005205996328592
1683586967106453000,2.612452880859375,-4.837012745180726,-5.37336243237257,5.675539206552505
1683586967116460000,2.6224599609375,-3.748930508226156,-4.758931142112613,5.186863709205388
1683586967126467000,2.632467041015625,-2.962466827046871,-4.119610325267911,3.594350187367201
1683586967136472800,2.642472900390625,-2.3520097011148926,-3.2631270591840145,1.685659423047304
1683586967146480000,2.652480224609375,-1.5211556740671395,-2.2795284022718665,0.8267530214697122
1683586967156487000,2.66248681640625,-1.760461273792386,-1.837032472297549,0.28379706788063047
1683586967166494000,2.672493896484375,-2.4595681585580107,-2.235370403854549,-0.1639776792794466
1683586967176500000,2.6825,-0.6980178474199027,-1.6296771313235163,0.8087175985634326
1683586967186507000,2.692507080078125,3.0440690054565667,0.7355962482511996,3.6171442029774186
1683586967196513800,2.702513671875,2.469692662209272,1.1395625410839914,3.0179777018666267
1683586967206521000,2.71252099609375,-1.6302473324269056,0.44115065284520383,1.1287953556150196
1683586967216527000,2.722527099609375,-0.9440303243726491,-1.0620993621751667,0.38032968891859054
1683586967226534000,2.732533935546875,0.7471686856884509,-0.875624019883573,-0.35746319259405135
1683586967236541000,2.742541015625,0.2114776816010475,0.9073796328455209,-0.6883072583317756
1683586967246548000,2.7525478515625,-1.9533599271297453,-0.2355634905874729,-0.9442997889637946
1683586967256554000,2.762553955078125,-1.1473860012512653,-2.603731714820862,-1.4027718712270258
1683586967266561000,2.77256103515625,1.930681208462268,-3.1952146756917235,-3.1347026315838096
1683586967276567800,2.78256787109375,2.0759598863601685,-2.4869167687326668,-4.700892210119963
1683586967286575000,2.7925751953125,0.8364508972067386,0.1147927926108241,-4.079425029873848
1683586967296582000,2.802581787109375,2.4017864161968228,0.8387228607267141,-2.80754280731678
1683586967306588000,2.812587890625,3.530049856892228,1.6082903521627188,-1.3066671202123163
1683586967316595200,2.82259521484375,3.7089661621063947,2.354092352607846,-0.6646200932741165
1683586967326602000,2.83260205078125,2.498563951906562,2.513726157464087,1.0991863992929458
1683586967336608800,2.84260888671875,1.7958908990919589,1.4108482101768254,2.4852426980406044
1683586967346615000,2.852614990234375,1.3851725016504526,1.354109839388728,2.852241196221113
1683586967356622000,2.8626220703125,-0.3064227411866188,2.474495386315882,4.195920827010274
1683586967366628900,2.87262890625,-0.49463645157814023,2.158705097325146,5.543661715888977
1683586967376636000,2.882635986328125,-0.36868206735327835,2.273858539941907,6.892258344814181
1683586967386642000,2.892641845703125,0.4944125796943903,3.016117460952699,7.038466558647156
1683586967396649000,2.90264892578125,1.0505383959800005,4.277476828190684,5.850908632940054
1683586967406656000,2.912656005859375,1.085134785325825,4.016125985395908,5.599584678640961
1683586967416663000,2.9226630859375,0.5594073221743107,2.6552415373057126,6.442427249646187
1683586967426670000,2.932670166015625,0.06885390212610364,1.1078279709100722,6.8168018295526505
1683586967436676000,2.942676025390625,0.08317045063972472,-0.09545359362959861,6.572853956979513
1683586967446683000,2.952682861328125,0.549469865527749,0.43815351685583587,5.217029130366444
1683586967456690200,2.962690185546875,1.1581026986420153,1.744478107240796,3.3434903434485195
1683586967466697000,2.972697021484375,-0.0034060090512037277,1.1647452053964138,4.047105061027407
1683586967476703000,2.982702880859375,-1.8962426400266588,2.4064760353177785,2.359544188272953
1683586967486710000,2.9927099609375,-2.091182589933276,4.404688080608844,-0.2472445760309696
1683586967496717000,3.002717041015625,-0.7302385206103325,6.51653468838632,-3.3557758245259524
1683586967506723800,3.012723876953125,1.9447826529204844,6.865403071114421,-7.6230772956609725
1683586967516730000,3.022730224609375,4.468894887581468,5.702231983166933,-7.5992299716055385
1683586967526737000,3.03273681640625,3.6794042597964403,4.598765130075812,-6.174001938420534
1683586967536744000,3.042743896484375,0.6744418145865202,2.56197697815299,-9.441431370973586
1683586967546751000,3.0527509765625,-1.9388678759187459,-0.27059213387072084,-9.230523013693094
1683586967556757000,3.062757080078125,-3.1061463991850613,-2.1568360885828732,-6.945050608325004
1683586967566763800,3.072763671875,-1.5934493413835762,-2.5993103912472724,-4.642264372323453
1683586967576771000,3.08277099609375,-0.447750124175474,-2.4904946272194386,-2.3404227236956356
1683586967586777900,3.09277783203125,-0.3377484382987022,-2.1931489264577624,-0.3432213167518377
1683586967596785200,3.10278515625,-1.5730436822146177,-2.358531796360016,0.5449214084431528
1683586967606791000,3.112791015625,-4.075617454284429,-1.971480690231919,0.5657193548653274
1683586967616798000,3.1227978515625,-4.173425502085686,-1.1362813274562358,0.6074211192369461
1683586967626805000,3.132804931640625,-2.6430069096326827,-0.558927429702878,0.7465016731470823
1683586967636812000,3.14281201171875,-1.341342127752304,-1.2156710905134678,0.74207655018121
1683586967646818000,3.152818115234375,0.8722609731912613,-2.602576699566841,0.3932061216264963
1683586967656825000,3.1628251953125,2.214719537752867,-3.320247999548912,-0.14658696575118227
1683586967666832000,3.172831787109375,2.080565334329009,-2.6807120786488055,-0.9333107043724507
1683586967676839000,3.1828388671875,1.7627333103775977,-1.2726070297002792,-1.4386737902134656
1683586967686845200,3.19284521484375,2.2909482064306737,-0.008306056052446364,-1.6390861801818013
1683586967696852000,3.20285205078125,3.4809991179972886,0.9178063343137502,-1.7039549581944942
1683586967706858800,3.212858642578125,3.8406431617617605,1.3588123179912566,-1.7378873306736349
1683586967716866000,3.222865966796875,2.8746944355696438,0.9765694889277219,-1.6448061652638017
1683586967726872000,3.2328720703125,1.2763105603933333,0.2655611539661884,-1.165975331713259
1683586967736878800,3.24287890625,0.23050270006656645,0.6773743609070777,-0.45527606270089743
1683586967746886000,3.252885986328125,0.0020996026277542114,1.192501811850071,0.293055894613266
1683586967756893000,3.262892822265625,-0.8007599175572395,0.8830009783923626,0.43840193865895266
1683586967766900000,3.27289990234375,-0.07273320951117203,0.7685919244021177,0.6009940087988972
1683586967776906000,3.282906005859375,0.8295183214645833,2.155941185569763,1.6064476469054818
1683586967786913000,3.2929130859375,1.0793804595828056,3.397475031614303,2.767375339840352
1683586967796920000,3.302920166015625,0.06728778532054275,3.1275784787923095,3.2086358828008175
1683586967806926800,3.3129267578125,-0.3156219466865062,2.179324399244785,2.7885847166076303
1683586967816932900,3.322932861328125,-0.17662855960316956,1.7356950813263654,2.5306945356607438
1683586967826940200,3.332940185546875,-0.10470189896821976,0.3336754897713661,-0.11304361085593699
1683586967836947000,3.342947021484375,0.3144518069285899,0.28977906489968297,0.8493941846057772
1683586967846954000,3.3529541015625,1.0294271458249538,0.7492372355908155,5.0532595408797265
1683586967856960000,3.3629599609375,1.8309772639118134,0.2264747597247362,4.94670353847742
1683586967866967000,3.372967041015625,0.8707271877527236,-0.6300596520245075,3.1031188680574298
1683586967876973800,3.382973876953125,-0.18838205269575117,-1.0170032061249017,1.5778513747572898
1683586967886981000,3.392981201171875,-0.06021481472700834,-0.526511599266529,0.8416825873151421
1683586967896988000,3.40298779296875,0.1626876394689083,0.08299041789770126,0.7287593879684805
1683586967906994000,3.412993896484375,0.12268873349241911,0.33670448220372196,1.0802072657957673
1683586967917001000,3.4230009765625,-0.009829320096969603,0.27902035499811173,1.7278852843582628
1683586967927008000,3.433008056640625,-0.01721753065213561,0.1400304019808769,2.184664591228962
1683586967937015000,3.44301513671875,-0.14654299874529242,-0.0240682733297348,2.291939847816527
1683586967947021000,3.45302099609375,-0.28770635027885433,-0.3055027037322521,1.7654764716058968
1683586967957027800,3.46302783203125,-0.34833062258958813,-0.7035726320028305,0.8953016570389271
1683586967967035100,3.47303515625,-0.48607905111312866,-1.0420540607511997,0.09719693016558885
1683586967977042000,3.4830419921875,-0.6419570105671882,-1.1625333745658397,-0.4061395452186465
1683586967987048000,3.4930478515625,-0.5398807839274407,-1.097263322275877,-0.5332260022133588
1683586967997055000,3.503054931640625,-0.15199673410654066,-0.7975555685579776,-0.48470571693331
1683586968007062000,3.51306201171875,0.1322106681406498,-0.7551789005994797,-0.730340227419138
1683586968017068800,3.52306884765625,-0.44055184670183806,-0.8500017951101064,-0.8639090321704744
1683586968027075000,3.533074951171875,-0.637764819574356,-0.7387012285292148,-0.31804771252870556
1683586968037081900,3.543081787109375,-0.5764613328278064,-0.5163327350795268,-0.0929597309872508
1683586968047089000,3.5530888671875,-0.7041700133740901,-0.1912660836994648,-0.2671753111645579
1683586968057096000,3.563095947265625,0.18779113759789615,-0.12976678211987017,-0.2771069225922227
1683586968067102000,3.57310205078125,1.6259329763591288,-0.45086569891273975,-0.2730170229300856
1683586968077108700,3.583108642578125,2.2581670498132707,-0.6552817715644836,-0.48690264245569703
1683586968087116500,3.593116455078125,2.4058979431688785,-0.9388146355509758,-0.8483513975545763
1683586968097123300,3.603123291015625,2.603575062954426,-1.3213538172125816,-1.236371933236718
1683586968107130600,3.613130615234375,2.8144273061335086,-1.4237526999354362,-1.4665788652271032
1683586968117136400,3.623136474609375,2.941360326132178,-1.3974123900204896,-1.5619029872581363
1683586968127143400,3.633143310546875,2.6447230659008025,-1.1167951212197542,-1.6709946456179021
1683586968137150500,3.643150390625,1.0234008712727576,-0.23066110549867153,-1.592950159689784
1683586968147157500,3.653157470703125,-2.937835659137368,1.3742238221347332,-1.6036843196719883
1683586968157163300,3.663163330078125,-6.102345984485745,2.920436780568957,-2.327963639616966
1683586968167170600,3.673170654296875,-5.943258415335417,3.3879835651695727,-3.313311186023056
1683586968177177300,3.68317724609375,-4.548260100719332,3.6025638889610767,-3.0377351262599226
1683586968187184600,3.6931845703125,-3.3165397926807403,3.5128128908872602,-1.6965274385422466
1683586968197190400,3.7031904296875,-2.382548339502513,3.057764937853813,-0.48006198278069495
1683586968207197400,3.713197509765625,-1.0623416464984416,2.058603093367815,0.24575229164659976
1683586968217204500,3.72320458984375,0.135208242521435,0.939750455096364,0.7056240115746856
1683586968227211500,3.73321142578125,1.0419678437724709,-0.33340076448321343,0.6779793410629034
1683586968237218300,3.74321826171875,1.3838169953882693,-1.4930723198771476,0.447401822194457
1683586968247224600,3.753224609375,1.1475324970498681,-2.375800911068916,0.300627791172266
1683586968257231400,3.7632314453125,0.5494450233474374,-2.875049824878573,0.07431874340325594
1683586968267238400,3.77323828125,0.09805968447476625,-2.9872745205670594,0.03165069128274917
1683586968277245400,3.783245361328125,-0.4366609402105212,-2.723332492235303,0.07055617599934338
1683586968287251500,3.79325146484375,-0.8149193758130073,-2.118013898235559,0.10430793121457099
1683586968297258500,3.803258544921875,-0.226463946069777,-1.3119944527149199,-0.09143032946288585
1683586968307265500,3.813265625,0.602214198243618,-0.4176619329690933,-0.6266191561818123
1683586968317272300,3.823272216796875,0.6357146090462803,0.3927916956067085,-1.4506769472181795
1683586968327278300,3.8332783203125,-0.1753103896766901,1.304458211991191,-2.4389403810709713
1683586968337285600,3.84328564453125,-1.2009215574100613,2.1430594921648503,-3.397406934814155
1683586968347292400,3.85329248046875,-2.4512147562325,2.793351784878969,-4.152189821833372
1683586968357299500,3.863299560546875,-3.0081510121181605,3.073458766070008,-4.2649598764449355
1683586968367305500,3.873305419921875,-2.3866198267251253,2.809719566833973,-3.584742401066422
1683586968377312500,3.8833125,-1.8167913560405373,2.169833517321944,-2.402000643469393
1683586968387319600,3.893319580078125,-1.950505122220516,1.3221826692521572,-1.666892178735137
1683586968397326600,3.90332666015625,-1.8496856176435947,0.16851181557774542,-1.802432868081331
1683586968407333400,3.91333349609375,-1.3489365284040569,-1.002084453934431,-2.213897992236912
1683586968417339600,3.923339599609375,-0.8173398809581994,-2.0640216112852094,-2.4688877755671736
1683586968427346400,3.933346435546875,-0.1027586559459567,-2.8028841678559777,-2.4489736993074414
1683586968437353500,3.943353515625,0.5667015708357095,-3.178617176634073,-2.1994284451186656
1683586968447360500,3.953360595703125,0.4594762908697128,-3.202455148339271,-1.6084458349853754
1683586968457366500,3.963366455078125,-0.44264206044673915,-3.1037422606527802,-0.8526151924788952
1683586968467373300,3.973373291015625,-1.256413435268402,-2.959219807949662,-0.41111879493594167
1683586968477380600,3.983380615234375,-1.3500988501816986,-2.638718857049942,-0.2312389053866267
1683586968487387400,3.993387451171875,-0.6628425622075795,-2.0479285546183585,0.2069680952221155
1683586968497393400,4.003393310546875,-0.08333587033450603,-1.4083698373645543,0.5490040015816688
1683586968507400400,4.013400390625,-0.034627076745033264,-0.9180465728104114,0.705555914774537
1683586968517407500,4.023407470703125,-0.3945528600603342,-0.9044266282588243,0.5657683816388249
1683586968527414500,4.03341455078125,-0.5322393292635679,-0.9707961662232876,0.2299380519211292
1683586968537420500,4.043420654296875,0.03429682187736034,-0.665683923113346,-0.19580928008705376
1683586968547427300,4.05342724609375,0.5879869354486466,-0.8024865952193737,-0.727197545479238
1683586968557434600,4.0634345703125,-0.24104513686895368,-0.5822475150138139,-0.9209779500871896
1683586968567441400,4.07344140625,-1.4404536593675612,0.005147299760580063,-0.5466735128074884
1683586968577448400,4.083448486328125,-1.5076695850282906,0.15994447824060917,-0.17040362067371606
1683586968587454500,4.093454345703125,-1.103322476184368,0.08442308104932307,-0.19250790045410393
1683586968597461500,4.10346142578125,-0.44181905362606044,0.17835399515628814,-0.06145896956920623
1683586968607468300,4.11346826171875,0.03389174820780754,0.2694984934151172,-0.05607727653086185
1683586968617475600,4.1234755859375,-0.04000818526148796,0.4214274229824543,0.17508593327105043
1683586968627481300,4.1334814453125,-0.23072072673141955,0.6774824974566698,0.5219774629682302
1683586968637488400,4.14348828125,0.03159691526889801,0.8969979395627975,0.29301205547153947
1683586968647495400,4.153495361328125,-0.16909458390176296,1.0193401246398688,-0.02416588848531246
1683586968657502500,4.16350244140625,-0.5498585725843906,1.1051070215135812,-0.2525976274967193
1683586968667508500,4.173508544921875,-0.6045289049267768,1.055347257566452,-0.6423357807517052
1683586968677515500,4.183515625,-1.391975167402625,0.8885849160045385,-0.8889934968054294
1683586968687522300,4.193522216796875,-1.0048422282099723,1.196776420429349,-0.5405483079254627
1683586968697529600,4.203529541015625,-1.0590741691350936,1.297430505311489,-0.4938742350339889
1683586968707535600,4.21353564453125,-0.39057168146967886,1.5104256057381629,-0.024858546924591062
1683586968717542400,4.22354248046875,-0.8043973972767591,1.361314656201005,-0.06814648450911044
1683586968727549400,4.233549560546875,-0.3810562496274709,1.6016604126289486,0.10434183348417282
1683586968737556500,4.243556396484375,-0.5670914469361304,1.492014335256815,0.17812135544419289
1683586968747563300,4.253563232421875,-0.430379960244894,0.96142920294106,-0.10138999794125557
1683586968757569500,4.263569580078125,0.011938859596848487,1.1377519845306872,-0.0318850845605135
1683586968767576600,4.27357666015625,-0.22809680796861648,0.8956585076525807,-0.008681319105625153
1683586968777583400,4.283583251953125,-0.5961386777222156,0.36812136473059653,-0.11912030042111874
1683586968787590400,4.29359033203125,-0.6642588587462902,0.4584048622459173,-0.0875461815059185
1683586968797596400,4.303596435546875,-0.678173986852169,0.5907721822530031,-0.1968646343588829
1683586968807603500,4.313603515625,-0.9303606954604386,0.4777352933987975,-0.28908757550418374
1683586968817610500,4.323610595703125,-1.1020686767309904,0.4124252013593912,-0.4280547321677208
1683586968827617300,4.3336171875,-1.404416715824604,0.8509457979619502,-0.772308314576745
1683586968837623300,4.343623291015625,-1.5554174246311188,0.6964683529555797,-0.5983470014214516
1683586968847630600,4.353630615234375,-1.5507143615067005,0.3250888632118702,-0.5488268914490938
1683586968857637400,4.363637451171875,-1.6920833186149595,0.1366501118928194,-0.6310112536609173
1683586968867644700,4.373644775390625,-1.93751763035357,-0.03595803308784962,-0.6929898631900548
1683586968877651500,4.3836513671875,-2.067953690037131,-0.03653144906163215,-0.9903764804840087
1683586968887657500,4.393657470703125,-1.9301491474121808,-0.0897638575553894,-1.4403075288951397
1683586968897664500,4.40366455078125,-1.8108090667605399,-0.2665489959597587,-1.833078766235709
1683586968907671600,4.413671630859375,-1.2673138917282223,-0.3019353666394949,-2.0822955191224812
1683586968917678300,4.42367822265625,-0.3270300604075193,-0.6047732350766658,-2.1719810507446526
1683586968927684600,4.4336845703125,1.0033522819131613,-1.2920277694851159,-2.334797285029292
1683586968937691400,4.44369140625,2.846107808032632,-2.1108768859624862,-2.4993185696661473
1683586968947698400,4.453698486328125,4.8678807616531845,-2.8800603465169665,-2.6121944227397442
1683586968957705500,4.46370556640625,6.4640370239079,-3.447746836736798,-2.6950924861788748
1683586968967711500,4.47371142578125,7.4755077303469175,-3.6597114250719547,-2.7245933059513567
1683586968977718500,4.483718505859375,8.019159849506616,-3.2842467118412255,-2.5609008733540772
1683586968987725600,4.4937255859375,7.768557779741287,-2.3607722687631845,-2.2578929090470075
1683586968997732400,4.503732421875,6.42930940939784,-1.1149889485806226,-1.6811393152743577
1683586969007738600,4.513738525390625,4.20856198965758,0.1498123758047819,-0.644445320251584
1683586969017745400,4.523745361328125,1.4842534919969737,1.1257535037010908,0.42275896384716033
1683586969027752400,4.53375244140625,-1.2762556153357028,1.4909855767309665,1.0529624082565308
1683586969037759500,4.543759521484375,-2.7662299691975116,0.5469225191324949,1.6344085437595843
1683586969047766500,4.5537666015625,-1.7657044351428746,-0.7258487612187862,2.7933734121888874
1683586969057772300,4.563772216796875,-0.4291851975023746,-1.3005869235157965,3.611106091856956
1683586969067779600,4.573779541015625,0.4641735087752342,-1.7299112372279166,3.3486943418323993
1683586969077786400,4.583786376953125,0.9348562533140182,-1.759562279126048,2.737837987449765
1683586969087793400,4.59379345703125,1.1854944903712719,-1.51970021456182,2.228428329631686
1683586969097799400,4.60379931640625,1.361436675145477,-0.8991793752551078,1.9338088389635084
1683586969107806200,4.61380615234375,1.5387619117759168,0.11385901889204979,1.95417182803452
1683586969117813200,4.623813232421875,1.7648315978311002,1.2707669547915459,2.0745272232085465
1683586969127820300,4.6338203125,1.71614107055068,2.427780689153075,1.8785504776000976
1683586969137827300,4.643827392578125,1.1077823782026768,3.0938515657573937,1.2530851676285266
1683586969147833300,4.653833251953125,-0.012286650121212005,3.162641608867049,1.0174942045122384
1683586969157840100,4.663840087890625,-2.499208679550886,3.124431997460127,1.3793220220565796
1683586969167847400,4.673847412109375,-6.484758324897289,3.3478222351729867,1.8927637118697165
1683586969177854200,4.683854248046875,-8.347075460577011,3.4377199482411145,1.4305401681184768
1683586969187860200,4.693860107421875,-6.941279273092746,3.16933555354774,0.3170084326088428
1683586969197867500,4.703867431640625,-3.874496039263904,2.78807179864943,-0.14266601118147373
1683586969207874300,4.713874267578125,-0.8202849944993853,2.4523154109507797,0.24501345597803592
1683586969217881000,4.723881103515625,1.6644404016688465,2.2538754900991917,0.4333697897106409
1683586969227887400,4.733887451171875,3.096073917981982,2.1439982343196866,0.5556944391310215
1683586969237894400,4.743894287109375,3.369679554454982,2.1624498368114233,0.5663344910889864
1683586969247901200,4.753901123046875,3.2356115680098534,2.220795058274269,1.2151350839406252
1683586969257908200,4.763908203125,2.842216645812988,2.084530730828643,2.061902719435096
1683586969267915300,4.773915283203125,2.1430884259983896,1.6298580408483743,2.6577690099567173
1683586969277921300,4.78392138671875,1.1645423763006926,0.8940642241984605,2.976762478902936
1683586969287928300,4.79392822265625,0.09076689711809158,0.05233458287119865,2.9386662647426127
1683586969297935400,4.803935302734375,-0.888854380595684,-0.6884013663560151,2.572786541458964
1683586969307942400,4.8139423828125,-1.4840800351262091,-1.229719489610195,2.016080879458785
1683586969317948400,4.823948486328125,-1.6407017986848949,-1.5516098490417003,1.4468395610123872
1683586969327955200,4.833955078125,-1.540017610925436,-1.652408310830593,0.7999971164911985
1683586969337962500,4.84396240234375,-1.5446578379467129,-1.6495961760193107,0.13447393689751624
1683586969347969300,4.85396923828125,-1.7694582347184418,-1.6919447869271038,-0.49528819348514075
1683586969357975300,4.863975341796875,-1.8605545099213718,-1.6666805818110704,-1.0558183822095393
1683586969367982300,4.873982421875,-1.784226764783263,-1.4860598107665777,-1.3856886344790458
1683586969377989400,4.8839892578125,-1.3893395582020283,-1.160154954996705,-1.3274118020772934
1683586969387996200,4.89399609375,-0.6251783097237348,-0.7254016019731759,-0.9368208313852548
1683586969398003500,4.90400341796875,0.34567660094946623,-0.2710731953859329,-0.25009762737452984
1683586969408009200,4.91400927734375,1.3338134858131407,0.10645254202783107,0.5702613091439008
1683586969418016300,4.924016357421875,2.2055121489465237,0.29433190589845176,1.2661176676809787
1683586969428023300,4.934023193359375,2.8682231937289235,0.22720190495550632,1.8289549643039702
1683586969438030300,4.9440302734375,3.2543639070138335,0.1335258423924446,2.2776748833596705
1683586969448036000,4.9540361328125,3.2748499379426237,0.07872983784377574,2.5983997061431405
1683586969458043400,4.96404345703125,2.7593393329009412,-0.000702010789513588,2.5541730264037845
1683586969468050200,4.97405029296875,2.104543883548677,-0.1238429450288415,2.178796575978398
1683586969478057500,4.984057373046875,1.6139739507570863,-0.298261062040925,1.383649822127819
1683586969488064300,4.994064208984375,1.2724810652330516,-0.5151528776451945,0.050288756257295605
1683586969498070300,5.0040703125,0.9587488778159021,-0.805270380719006,-1.2809727069854735
1683586969508077300,5.014077392578125,0.5584782246306538,-1.063579371599853,-2.1904519424587487
1683586969518084400,5.02408447265625,0.28440087899267674,-1.2490841152936218,-2.7035914344549177
1683586969528091100,5.034091064453125,0.2923538838237524,-1.356883103494346,-2.8926415956705807
1683586969538097400,5.044097412109375,0.42674832574427124,-1.4232730997249483,-2.8814889180153607
1683586969548104200,5.054104248046875,0.4054252594694495,-1.4507254625350237,-2.9484675277888774
1683586969558111200,5.064111328125,0.2167144132107496,-1.4311469018399714,-3.141626293367147
1683586969568118300,5.0741181640625,-0.007287234398722648,-1.3101111231863498,-3.2525580266356466
1683586969578124300,5.084124267578125,-0.07637567593306302,-1.1345289308309554,-3.067099167910218
1683586969588131000,5.094131103515625,0.15714344934523106,-0.7959098471775651,-2.5348797123908997
1683586969598138400,5.104138427734375,0.5910685348510741,-0.41276130144596096,-1.8555343436717986
1683586969608145200,5.114145263671875,1.0418231746047735,-0.11908961302191018,-1.1703215442240238
1683586969618152400,5.12415234375,1.3974743493407964,0.029859131690859794,-0.5522755705982446
1683586969628158200,5.134158203125,1.6938158414959907,-0.056242988486588,-0.05219955831468105
1683586969638165200,5.144165283203125,1.9222022800609468,-0.30925562652498484,0.2652519418865442
1683586969648172300,5.15417236328125,1.938694272917509,-0.6292620719060301,0.5163093542039394
1683586969658179300,5.164179443359375,1.7790537460595368,-0.844155699430406,0.8537053258031606
1683586969668185300,5.174185302734375,1.4800211151242255,-0.8813988038927316,1.4588462251484393
1683586969678192400,5.1841923828125,0.9108011317268013,-0.7347650581240653,2.103954393222928
1683586969688199200,5.19419921875,0.3693856855779886,-0.6073457159131765,2.536294255363941
1683586969698206500,5.20420654296875,-0.08431903615295887,-0.595065495532751,2.653117969280481
1683586969708212500,5.21421240234375,-0.4108791409611702,-0.718868400812149,2.5403029064834115
1683586969718219300,5.22421923828125,-0.485972083607316,-0.9100023825645446,2.370855271360278
1683586969728226300,5.234226318359375,-0.41514498171210285,-1.0508332872733472,2.1508634439140555
1683586969738233300,5.2442333984375,-0.31382454187572,-1.0586991983428597,1.8902929378420112
1683586969748240100,5.254240234375,-0.21633096685111522,-0.9348591759234667,1.6496289092451333
1683586969758246400,5.264246337890625,-0.303533449485898,-0.6621916970834135,1.3125211069375275
1683586969768253400,5.27425341796875,-0.6383920115619898,-0.3504460073083639,0.7427741770565509
1683586969778260200,5.28426025390625,-1.0400964969426394,-0.021864625805616378,0.07362053200602531
1683586969788267300,5.294267333984375,-1.4548866738677024,0.421946478420496,-0.5615501794219017
1683586969798273300,5.304273193359375,-1.8781886585503815,0.8853551403030753,-1.1776947033405303
1683586969808280300,5.3142802734375,-1.99680568562448,1.209943360516429,-1.6635756015330552
1683586969818287400,5.324287353515625,-1.7200386625111102,1.428314601023495,-1.9865034873187541
1683586969828294400,5.33429443359375,-1.2728764942914246,1.463645442123711,-2.3961639001399275
1683586969838301400,5.344301513671875,-1.0292501087576151,1.3580311044856905,-2.8847780226886273
1683586969848307500,5.354307373046875,-0.98992639862895,1.2333514163717627,-3.2078730817347765
1683586969858314200,5.364314208984375,-0.9034913932353258,1.0445379865214228,-3.3239439314574
1683586969868321500,5.374321533203125,-0.627501784235239,0.818101805241406,-2.945632596623897
1683586969878328300,5.384328369140625,-0.07569441567063331,0.5869704518824815,-2.1217811418145893
1683586969888334300,5.394334228515625,0.8738520417749881,0.2645692203193903,-1.6301871266722678
1683586969898341400,5.40434130859375,2.207213692167401,0.08770517145991324,-1.354943659864366
1683586969908348400,5.414348388671875,3.8968671532869337,0.0208157012745738,-1.14771545240134
1683586969918355200,5.424355224609375,4.842155953288078,0.14799480498880146,-0.4133668661236763
1683586969928361500,5.434361572265625,4.379647747376561,0.41861908756345506,1.183892388936877
1683586969938368300,5.4443681640625,2.8374358412772414,0.6559294218182563,3.4103467881470917
1683586969948375300,5.454375244140625,1.14983229842484,0.4711348722204566,5.631611802020669
1683586969958382300,5.46438232421875,0.11980009937882423,-0.05154489379823207,7.408496387347578
1683586969968389400,5.474389404296875,-1.0252093089342116,-0.6702785574272274,8.231903605520724
1683586969978395100,5.48439501953125,-2.3357418724030254,-1.325097972176969,7.9309876450568435
1683586969988402400,5.49440234375,-3.6765152603566644,-1.6610463753163813,7.275951957207917
1683586969998409200,5.5044091796875,-6.159117673021554,-1.5490040504574776,6.714774702751636
1683586970008416500,5.51441650390625,-6.1085419165164225,-0.7630269837513566,5.5975365139395
1683586970018422300,5.52442236328125,-3.1904309485465285,-0.2719879721432924,3.854826000893116
1683586970028429300,5.53442919921875,-2.4663451053470373,-0.02770546078830957,1.8992466441482305
1683586970038436400,5.544436279296875,-2.504313309213519,0.3768891930758953,0.15576631577312947
1683586970048443400,5.554443359375,-2.6646529242515564,1.063666757622361,-1.1242097813904284
1683586970058450200,5.5644501953125,-2.599915955924988,1.869075377768278,-1.9617758732974528
1683586970068456400,5.57445654296875,-2.2419027282327413,2.7528686755821106,-2.5196628540366888
1683586970078463200,5.584463134765625,-1.6244477062374352,3.5351720222115515,-2.8223171826004982
1683586970088470000,5.594469970703125,-0.40342648686766625,4.042103599478304,-2.948974892789125
1683586970098477000,5.60447705078125,1.6014514460533857,4.265979282620549,-3.116452689144015
1683586970108483000,5.614483154296875,3.5917677696585653,4.209819003981352,-3.6168422974213956
1683586970118489900,5.62448974609375,4.035371368613839,3.8636522814273833,-4.801109657150507
1683586970128497200,5.6344970703125,3.0327707818508145,3.050911418697238,-6.323733065682649
1683586970138504000,5.64450390625,1.6491981166124343,1.917845253895223,-7.704214194646477
1683586970148511200,5.65451123046875,0.5500549719393253,0.852566969422996,-8.460244159117341
1683586970158517200,5.664517333984375,-0.20831366461217402,0.10145137273967265,-8.118251507377623
1683586970168524000,5.67452392578125,-0.8055968361943959,-0.3592939151525497,-7.1270146106719965
1683586970178531000,5.684531005859375,-1.1636065567553042,-0.6970388463199139,-6.04319762994647
1683586970188538000,5.6945380859375,-1.3980255534827708,-0.9029057023018598,-4.959454298979043
1683586970198544100,5.704544189453125,-1.5759680452287197,-1.0534417162060736,-4.099798832599818
1683586970208551200,5.71455126953125,-1.7548802587896584,-1.0180983078852295,-3.3268507588148113
1683586970218558000,5.724557861328125,-1.8841794233977793,-0.8396142566084861,-2.514585696902871
1683586970228565000,5.73456494140625,-2.0076076501458884,-0.6082073011785746,-1.4312749121338129
1683586970238571300,5.7445712890625,-2.034233206743002,-0.4651312478914857,0.1650759959101677
1683586970248578000,5.754578125,-2.4458254644095896,-0.3376166286125779,2.1796301041930914
1683586970258585000,5.764585205078125,-3.341999812629819,-0.405390772677958,4.27550757394433
1683586970268592000,5.774592041015625,-4.721264551541209,-0.9520914657533168,5.618848182037472
1683586970278599000,5.784598876953125,-5.352523642483353,-1.8892641793161629,5.714682299417257
1683586970288605000,5.79460498046875,-4.479548968064785,-2.6279922958523034,4.555319371581077
1683586970298612200,5.8046123046875,-3.2215321892529722,-3.185877815286815,2.9371359864354134
1683586970308619000,5.814618896484375,-2.221320543453097,-3.4685531856611367,1.324866793769598
1683586970318626000,5.8246259765625,-1.5729378837525845,-3.480404951496422,0.08670563902854919
1683586970328632000,5.834632080078125,-1.2088432903200388,-3.299109349930286,-0.7222884383887052
1683586970338639000,5.84463916015625,-1.1470435444891451,-2.826058122694492,-1.3332184425294398
1683586970348646100,5.854646240234375,-1.2599357641756534,-2.125513898602128,-1.6576614090532062
1683586970358653200,5.864653076171875,-1.2946283073723315,-1.3083777235224843,-1.7967869711488484
1683586970368659000,5.874658935546875,-1.1214946772128342,-0.44988574796468017,-1.7672767990261316
1683586970378666200,5.884666259765625,-0.4369546624600887,0.29572102216929197,-1.519778540495038
1683586970388673000,5.894673095703125,0.8509095576047897,0.8634759014502167,-1.143679621013999
1683586970398680000,5.90468017578125,2.242462700203061,1.1668256649322808,-0.8982160831809043
1683586970408687000,5.91468701171875,2.7754028712123633,1.2293833895236252,-0.9754770175158977
1683586970418693000,5.924693115234375,1.9667220975279807,1.1582885766029358,-1.1872153958797453
1683586970428700000,5.934699951171875,0.4492506649315357,0.9237886235937476,-1.4717138900279998
1683586970438707200,5.944707275390625,-0.5478349578022956,0.6304015973299741,-1.3675778082489967
1683586970448714000,5.9547138671875,-0.8270154717981815,0.4817378070384264,-0.8566273507297039
1683586970458720000,5.964719970703125,-1.0694424184143543,0.47542219415083525,-0.34884909350574017
1683586970468727000,5.97472705078125,-1.2723708828568459,0.5048424960330128,0.30775019039809703
1683586970478734000,5.984734130859375,-1.3383335935860872,0.5896325106985867,1.1525596775621174
1683586970488741000,5.9947412109375,-1.5246289031356572,0.7118542842663824,1.9431302095383405
1683586970498747100,6.0047470703125,-2.083881327009201,0.7468162920542061,2.2798510583549736
1683586970508754000,6.01475390625,-2.9892285772442815,0.6190984052881598,1.947228292506933
1683586970518761200,6.02476123046875,-3.598448854857683,0.36986280157044527,1.358770816937089
1683586970528768000,6.03476806640625,-3.471124789714813,0.2627291454106569,1.0151888501793145
1683586970538775000,6.044775146484375,-2.6381279054194686,0.43719059010781347,0.937100232848525
1683586970548781000,6.054781005859375,-1.657436368125677,0.7498533216625451,0.9244587779402732
1683586970558788000,6.0647880859375,-0.8286497950017452,0.9666266254536807,0.7930138334751129
1683586970568795000,6.074794921875,-0.024990064349770545,1.0305763158600776,0.6476145979374647
1683586970578802200,6.08480224609375,0.934371684667468,0.896893821601197,0.5877993039220571
1683586970588808000,6.094807861328125,2.1424995201945305,0.5980606587607413,0.5649748931735754
1683586970598815000,6.10481494140625,3.4965830560982227,0.10467822583168744,0.5236088635623455
1683586970608822000,6.114822021484375,4.455336317828297,-0.6091752694278955,0.2648866157054901
1683586970618829000,6.1248291015625,4.665674766266346,-1.3609595591530204,-0.2299865672379732
1683586970628836000,6.134836181640625,4.17494584352076,-1.974906865288317,-0.735244950595498
1683586970638842000,6.144842041015625,3.030894466584921,-2.190642350464314,-0.9432909041821956
1683586970648849000,6.154848876953125,1.7917723578572273,-1.8467191690534352,-0.6927776817440986
1683586970658856200,6.164856201171875,0.9730056589663029,-0.9798138776764274,0.1244371115297079
1683586970668863000,6.174863037109375,0.5003384626120329,0.02437293709842488,1.0300246002614497
1683586970678869000,6.184868896484375,0.1128688388109207,0.7349722711339592,1.7329957592397927
1683586970688876000,6.1948759765625,-0.1875970397979021,1.1872681489802897,2.299667519459128
1683586970698883000,6.204883056640625,-0.33822190102934835,1.4249319728478789,2.8709540799975395
1683586970708889900,6.214889892578125,0.07892214554548263,1.497122179789841,4.331969465878606
1683586970718897200,6.224897216796875,1.6315081461429595,1.1623599176950752,9.805914086940884
1683586970728903200,6.234903076171875,1.0686942303955553,0.7702927369706333,9.869957227784395
1683586970738910000,6.244909912109375,1.0476514423668384,0.798241578060761,1.686767384289205
1683586970748917000,6.2549169921875,1.171007772922516,0.5938471327189355,-0.8591291044175624
1683586970758924000,6.264924072265625,-0.1974514943361282,0.13519045113641767,-1.6893810739189385
1683586970768930000,6.274929931640625,-2.0723346816003323,-0.7006471730101853,-1.6842448800742624
1683586970778937000,6.28493701171875,0.9028267918467521,-1.174174127998948,-1.0731827739864588
1683586970788944100,6.294944091796875,5.957822362738847,-0.7094799563504756,-1.563173153324425
1683586970798951200,6.304951171875,4.656206680697203,-0.5647407921567559,-1.939302175682783
1683586970808957200,6.314957275390625,1.1264426550090312,-0.3149695837249979,-1.5411482223905622
1683586970818964000,6.3249638671875,0.27775369606316086,-0.152001008422859,-0.7357135910205542
1683586970828971300,6.33497119140625,-0.6263835938602685,0.019456212957017122,-0.2919305438451469
1683586970838978000,6.34497802734375,-0.7953051592826843,0.19262677759341895,0.1765276565119624
1683586970848984800,6.35498486328125,-0.3731950147330761,0.3970649890117347,0.6263993759512901
1683586970858991000,6.3649912109375,0.012140519648790359,0.5120727760801091,0.8160776059374213
1683586970868998100,6.374998046875,0.33487960486412044,0.44699941540602595,0.8151331646941602
1683586970879005000,6.3850048828125,0.7209492987394333,0.1416822608411312,0.6660574326008558
1683586970889012200,6.39501220703125,1.1855910095483064,-0.1196520692102611,0.36819114203117786
1683586970899018000,6.40501806640625,1.466015970647335,-0.16848898269142953,-0.06761296215429902
1683586970909025000,6.41502490234375,1.3778168781906366,-0.026767668481543657,-0.4709130461633205
1683586970919032000,6.425031982421875,0.8745522989988327,0.15846808554511516,-0.6129854753658175
1683586970929039000,6.4350390625,0.3472831593632698,0.2814744701519608,-0.42391770542822776
1683586970939044900,6.445044921875,0.34975568695664405,0.2344448618210852,0.050854354250803584
1683586970949052200,6.45505224609375,0.38590836583375926,0.11188709776457398,0.23351035744994877
1683586970959059000,6.465058837890625,0.32059272083640095,0.047568354850076135,0.03227773713991046
1683586970969066200,6.475066162109375,0.49704994246065615,-0.0396992654427886,-0.1443820943843573
1683586970979073000,6.485072998046875,0.6659715078830719,-0.06265625306237489,-0.26641996275261043
1683586970989079000,6.4950791015625,0.7768763531446456,-0.0376071885343641,-0.336059170037508
1683586970999086000,6.505086181640625,0.8715800051897764,0.006077822076343,-0.42077991885915395
1683586971009093000,6.515093017578125,0.8452408643186092,0.10537216291259974,-0.4668285533286631
1683586971019100000,6.525099853515625,0.8487807288825512,0.23244440871886907,-0.3877117619939148
1683586971029106200,6.535106201171875,1.0387082574546336,0.27839871596843,-0.262315011651814
1683586971039113000,6.545113037109375,1.3018869001984597,0.2309600884452462,-0.24279241892769932
1683586971049120000,6.5551201171875,1.6095926669329403,0.11475684451460838,-0.3646289925701916
1683586971059127000,6.565126953125,1.8564134645938872,0.07116532087363302,-0.4782429506599903
1683586971069133000,6.575133056640625,2.117942002043128,0.06975994758773595,-0.6079468966767192
1683586971079139800,6.585139892578125,2.263246545034647,-0.017396102089434862,-0.7418760591730476
1683586971089148000,6.59514794921875,2.2505162427991627,-0.10844466569311917,-0.7310887076988816
1683586971099154700,6.60515478515625,2.149184112524986,-0.10381864986028522,-0.4986199682563543
1683586971109161700,6.61516162109375,1.9114777646899221,-0.011271792256552726,0.1469292215839028
1683586971119167700,6.625167724609375,1.4705471843361855,0.23245368800386784,1.4359025719344616
1683586971129174800,6.6351748046875,0.9922299993962049,0.5742926104865967,3.2819787669092415
1683586971139181600,6.645181640625,1.1407201866865158,0.8816858041405677,5.095517550894618
1683586971149188900,6.65518896484375,2.3147417544722555,0.7843190703660249,6.385619320753216
1683586971159194600,6.665194580078125,4.049501016253233,-0.013482837635837495,6.214625040709972
1683586971169201700,6.67520166015625,3.8292595979601143,-0.9694402946349233,3.508759231582284
1683586971179208700,6.685208740234375,1.62304017752707,-1.1493060825936496,0.7913397627830505
1683586971189215700,6.6952158203125,0.04566109645664692,-0.7204135113622993,-0.446627915212512
1683586971199222800,6.705222900390625,-0.5469517452269792,-0.1652144910654053,-0.8531997143685818
1683586971209228800,6.715228759765625,-0.5265840799808502,0.305068403968215,-0.9728051679581403
1683586971219235600,6.725235595703125,-0.045887306427955625,0.5858399865478277,-0.9967851784825325
1683586971229243000,6.735242919921875,0.6473907260537147,0.597709799496457,-1.0270412005364895
1683586971239249700,6.745249755859375,1.4433955580383537,0.4650038951847702,-0.9174071058630943
1683586971249255700,6.755255615234375,2.102466200491786,0.38189949551858005,-0.6084218207120895
1683586971259262700,6.7652626953125,2.1685779643028975,0.2775382997468114,-0.30954408807754513
1683586971269269800,6.775269775390625,1.656198350763321,0.1712328380394727,-0.07300912210941314
1683586971279276500,6.785276611328125,0.9005512481302023,0.09957513053901493,0.016479425635933874
1683586971289282800,6.79528271484375,0.3965782284080982,0.11086736279539763,0.11932780569195747
1683586971299289600,6.80528955078125,0.18288988502025602,0.19730090688429772,0.29380525167584415
1683586971309296600,6.815296630859375,0.08075812880098819,0.2945417492568493,0.4785451484769582
1683586971319303700,6.8253037109375,0.01367021343410015,0.42614846015498037,0.7645698292791843
1683586971329310700,6.835310791015625,-0.09730477445423602,0.5055795781359076,0.9990870256841182
1683586971339316500,6.84531640625,-0.3212935625821352,0.4448120979622006,1.0026637151271105
1683586971349323800,6.85532373046875,-0.5884814409673214,0.323383666729182,0.8103127588003873
1683586971359330600,6.86533056640625,-0.8003940068542957,0.1761179066672921,0.4914192430973053
1683586971369337900,6.875337890625,-0.8352782732307911,0.058879182209074496,0.16222528265416622
1683586971379344000,6.88534375,-0.6531184560507536,-0.0348508024983108,-0.034949732828140255
1683586971389350700,6.8953505859375,-0.4518248993337154,-0.0715412415139377,-0.0737035341143608
1683586971399357700,6.905357666015625,-0.3919172508597374,-0.0894790492646396,-0.08437807286381721
1683586971409364700,6.91536474609375,-0.5337719456583261,-0.11802680609598755,-0.06321253523826599
1683586971419371500,6.92537158203125,-0.8071265299797058,-0.22818667820915578,-0.11041092426478862
1683586971429377800,6.935377685546875,-1.1877134085297585,-0.38491175601184363,-0.3193792533934116
1683586971439384600,6.945384521484375,-1.6205600511491298,-0.5537183167524635,-0.6989590007275343
1683586971449391600,6.9553916015625,-2.113624138844013,-0.6840818957217037,-1.1951789221048355
1683586971459398700,6.965398681640625,-2.5907231801658868,-0.7659577765062451,-1.7071470322340725
1683586971469404700,6.97540478515625,-3.041736763116717,-0.7784099924527108,-2.201523956093192
1683586971479412000,6.985411865234375,-3.4147149202287195,-0.775739019677788,-2.6818723545998333
1683586971489418800,6.995418701171875,-3.7165257837057113,-0.7418683142580091,-3.0872458838820456
1683586971499425500,7.005425537109375,-3.865972833329439,-0.7014315283209085,-3.3827561859101056
1683586971509431800,7.015431884765625,-3.843098153698444,-0.6363768723472952,-3.541136483573913
1683586971519438800,7.02543896484375,-3.5416268974393605,-0.5963138881586492,-3.536819789418578
1683586971529445600,7.035445556640625,-3.1100229483574626,-0.6040618719369173,-3.469491051033139
1683586971539452700,7.04545263671875,-2.9437369921356438,-0.6593596885278821,-3.5121126336634156
1683586971549459700,7.055459716796875,-3.0456887156128882,-0.7809048780083656,-3.586123041769862
1683586971559465700,7.0654658203125,-3.191450354722142,-0.8969704670339822,-3.5482910315036773
1683586971569472800,7.07547265625,-3.253982506480813,-1.0284428840279578,-3.380524481335282
1683586971579479800,7.085479736328125,-3.302815803232789,-1.1583955441087483,-3.1844688252717255
1683586971589486800,7.09548681640625,-3.4003567245304582,-1.2553352846428751,-2.979481090211868
1683586971599492900,7.105492919921875,-3.485866431772709,-1.2295958632305264,-2.6910323971331116
1683586971609499600,7.115499755859375,-3.602323065942526,-1.05291710781008,-2.278306751522422
1683586971619507000,7.1255068359375,-3.748984284240007,-0.7540170172132551,-1.8904665408432482
1683586971629513700,7.135513671875,-3.894923033481836,-0.4540747240871191,-1.5947972488611937
1683586971639520800,7.145520751953125,-4.0492543480157845,-0.2073541719302535,-1.3998223737716673
1683586971649526800,7.15552685546875,-4.099401065453887,-0.0676418959878385,-1.243990591546893
1683586971659533800,7.165533935546875,-3.868583308088779,-0.09564692424461245,-1.0843114862442016
1683586971669540600,7.17554052734375,-3.4958699393928048,-0.2588067112699151,-1.0752519814759491
1683586971679548000,7.1855478515625,-3.167732794526219,-0.4238754006564617,-1.0667641391158103
1683586971689553700,7.1955537109375,-2.936574845421314,-0.5546656806051731,-1.0797019466221331
1683586971699560700,7.205560791015625,-2.639088274884224,-0.7143528230838477,-1.045001804640889
1683586971709567700,7.215567626953125,-2.2061837645977733,-0.9478294243946671,-0.9592337387233972
1683586971719574800,7.22557470703125,-1.7505641491562127,-1.2566136340156198,-0.9529232404023409
1683586971729581800,7.235581787109375,-1.3297650872051716,-1.46207161693573,-0.9818675953358411
1683586971739587800,7.245587890625,-0.8299182075023651,-1.4659731544189154,-0.8929822741806507
1683586971749594600,7.2555947265625,-0.2910644285351038,-1.3080736260093748,-0.6820557967215776
1683586971759602000,7.265601806640625,0.3322510099261999,-0.9891973537020384,-0.2923702504366636
1683586971769608700,7.275608642578125,1.0084563270539044,-0.6485359505660832,0.26890169656574725
1683586971779614700,7.28561474609375,1.6404805571496486,-0.4585081764899194,0.8563888657987118
1683586971789621800,7.295621826171875,2.087384951215982,-0.38050402257218957,1.3405220435410736
1683586971799628800,7.30562890625,2.165882149347663,-0.40799576754458244,1.6607476846307516
1683586971809635600,7.315635498046875,1.761578295123577,-0.44387350193783637,1.8308698580145835
1683586971819641900,7.325641845703125,0.9913397725582123,-0.33260924877934156,1.8794909733206033
1683586971829648600,7.335648681640625,0.302584185937047,-0.03233670078553259,1.9078174886167047
1683586971839655700,7.34565576171875,-0.07136953820884227,0.31663886864408847,1.7959850071161985
1683586971849662700,7.355662841796875,-0.00414484471976757,0.5173039181992412,1.3590338517874478
1683586971859669800,7.365669677734375,0.43988428617119785,0.5027803758714348,0.9070423637151718
1683586971869675500,7.375675537109375,0.8102718422681092,0.48487756636887785,0.5061632232427596
1683586971879682800,7.385682861328125,1.0706044479310513,0.4765577009867876,0.20705752707123756
1683586971889689600,7.395689697265625,1.260704994982481,0.4495910028018057,0.06349719739854336
1683586971899697000,7.40569677734375,1.186960544335842,0.398789292053692,-0.07599661348760127
1683586971909702700,7.41570263671875,0.9412614441812038,0.44923415218815205,-0.10771861644089221
1683586971919709700,7.425709716796875,0.851768804782629,0.47697921433448787,0.08653612768054007
1683586971929716700,7.435716796875,0.914084098920226,0.4863635671429336,0.410737686663866
1683586971939723800,7.445723876953125,1.0303794050484896,0.5605509027188643,0.8109189079999923
1683586971949730600,7.45573046875,1.051678798186779,0.7175885901346802,1.2349141356438398
1683586971959736800,7.46573681640625,1.0613678330302239,0.7778140723861754,1.6877976041197775
1683586971969743600,7.47574365234375,1.0908797587186096,0.562129440614581,2.0584850199460982
1683586971979750700,7.485750732421875,0.9513701657414436,0.06959667418426833,2.0995944444477557
1683586971989757700,7.4957578125,0.6879805105954409,-0.4828088338034227,1.9136048398464918
1683586971999763700,7.505763671875,0.4612725266367197,-0.8782144747681915,1.6781711131185293
1683586972009770800,7.515770751953125,0.15705518653988837,-1.4257510341458022,3.048887803915143
1683586972019777800,7.52577783203125,1.7355033581465482,-1.5742651868335902,6.578870440790057
1683586972029784600,7.53578466796875,7.006161787369847,0.46363436039723455,3.2480782508730885
1683586972039790600,7.54579052734375,4.30711851773858,0.6739569536790251,-0.3959288245886564
1683586972049798000,7.5557978515625,-1.8389385981798172,0.7204147534713149,-2.4056980366826055
1683586972059804700,7.5658046875,-3.483575105965137,0.6191938284866512,-2.9799872861683365
1683586972069811700,7.575811767578125,1.4321031796514987,0.03623725188802927,-1.7414561290711164
1683586972079818800,7.58581884765625,2.8528315633296963,-0.28248328186832367,-0.8572466516718268
1683586972089824300,7.59582421875,1.7203730090320108,-0.37327308493796735,-0.4344514474675059
1683586972099831300,7.605831298828125,1.1189432391643523,-0.2664300457552075,-0.4130142532937228
1683586972109838300,7.61583837890625,0.6795125419795512,-0.35870511894654483,-0.32478549635112286
1683586972119845400,7.625845458984375,0.7467115165054797,-0.46081115620266644,-0.2400758534453809
1683586972129851400,7.635851318359375,1.3242355101287364,-0.3194007345728576,-0.2118663886576891
1683586972139858200,7.645858154296875,1.8921768518924713,-0.07731544100120663,-0.1011262324385345
1683586972149865500,7.655865478515625,1.9543033454596994,0.11562736200513317,-0.07793525339998304
1683586972159872300,7.665872314453125,1.6837258246362208,0.18843816679716108,-0.0240210001219064
1683586972169879300,7.67587939453125,1.3373147719323635,0.2454123556351289,0.12602416152544318
1683586972179885300,7.68588525390625,0.9656558807253837,0.2422268392005004,0.10360935449115931
1683586972189892400,7.695892333984375,0.6644096653938293,0.1542632907990366,0.049028307867422696
1683586972199899100,7.705899169921875,0.7443839503407478,-0.04958318353751674,-0.1037537313979119
1683586972209906400,7.715906494140625,0.9150380386441945,-0.22379105533240362,-0.3464295382086187
1683586972219912200,7.725912109375,1.0396119282960892,-0.283746652867645,-0.5524878251094371
1683586972229919200,7.735919189453125,1.0897224053770302,-0.22240040469160302,-0.6122388217169791
1683586972239926300,7.74592626953125,1.3791735534965992,-0.14264632010031492,-0.6031074938215315
1683586972249933300,7.755933349609375,1.363490831196308,-0.041266989683546126,-0.5828790909156203
1683586972259939000,7.76593896484375,1.4128759166121483,-0.016962825238704682,-0.5228229738816619
1683586972269946400,7.7759462890625,1.387273857843876,-0.001437339326739311,-0.5050526316523551
1683586972279953200,7.785953125,1.2884592633485794,0.019235665541514752,-0.5465703446939587
1683586972289960400,7.79596044921875,1.3711983368337153,0.013626447357609867,-0.5154498147651553
1683586972299967200,7.80596728515625,1.4234206915020942,-0.06107650959026068,-0.5033525497362017
1683586972309973200,7.81597314453125,1.3994132084488868,-0.2209517585195601,-0.47803018469214437
1683586972319980300,7.825980224609375,1.3984884948194025,-0.4058513028617948,-0.3307502499744296
1683586972329987300,7.8359873046875,1.3529974942326546,-0.5544693543154746,-0.16608049677759407
1683586972339994000,7.845994140625,1.2950538393080233,-0.757427556309104,0.16315934863388537
1683586972350000400,7.85600048828125,1.2834919963300226,-0.9624329731561243,0.6349275503218174
1683586972360007200,7.866007080078125,1.0030956768035888,-0.8035353005547076,1.0264964261353016
1683586972370014200,7.87601416015625,1.4317472058206795,-0.09424483889434486,1.7522995946466922
1683586972380021200,7.886021240234375,3.054659957575798,0.9445394429385662,2.735128728491068
1683586972390028300,7.8960283203125,4.976299635317921,1.705406326046586,3.5524645177960394
1683586972400034300,7.906034423828125,5.257286321952939,1.7587195446915924,3.6720235018953677
1683586972410041300,7.916041259765625,2.6109143198013305,1.2320907487861812,2.0639339330017568
1683586972420048100,7.926048095703125,0.07618950571119786,0.651237756870687,0.5681473857298494
1683586972430055400,7.936055419921875,-1.0897457862526179,0.2286206309133209,-0.029140169766545293
1683586972440061400,7.9460615234375,-1.4819751718014478,-0.12695881202705203,-0.11651304053217172
1683586972450068200,7.956068115234375,-1.3974749338626862,-0.40460378701873123,0.13152093231081963
1683586972460075300,7.9660751953125,-0.9858855988055467,-0.47170200458392497,0.570941692623496
1683586972470082300,7.976082275390625,-0.2055868699967861,-0.4170802606236189,1.1425918257772922
1683586972480089000,7.986089111328125,0.7146598432064056,-0.36875747067704795,1.7304659485012293
1683586972490095400,7.996095458984375,1.4421113634467124,-0.4779518587589264,2.077260447564721
1683586972500102400,8.006102294921876,1.7746037809133528,-0.7993621795885264,1.994556445392966
1683586972510109400,8.016109375,1.2849094619125128,-1.0232958765283227,1.4666194894984363
1683586972520116200,8.0261162109375,0.4098264170378446,-0.9638300535377115,0.9283908566921949
1683586972530122200,8.036122314453126,-0.10881342594027518,-0.7093239620711654,0.6705033060938119
1683586972540129500,8.046129638671875,-0.2983049011826515,-0.40990613121055064,0.49956338658630844
1683586972550136300,8.05613623046875,-0.2598842773735523,-0.16404614140577614,0.3121872960627079
1683586972560143400,8.066143310546876,-0.02451835518479347,-0.05130114817023277,0.14094693230390548
1683586972570150400,8.076150390625,0.17669161490201948,-0.07531286900714039,-0.07199030045568942
1683586972580156400,8.086156494140624,0.2390495791375637,-0.1432200648676604,-0.29458617292046546
1683586972590163200,8.0961630859375,0.24001930095255372,-0.23530432819463312,-0.44137540151178833
1683586972600170500,8.10617041015625,0.19142448913156984,-0.32861265342384577,-0.5301730443835259
1683586972610177300,8.11617724609375,0.05296703555583954,-0.346660789681226,-0.5421341158121824
1683586972620183300,8.126183349609375,-0.10796645372211933,-0.3133794284567237,-0.5067477451324462
1683586972630190300,8.1361904296875,-0.3447428272306919,-0.23441811994463205,-0.4660328729063272
1683586972640197400,8.146197265625,-0.5654372499883175,-0.1203150631636381,-0.5004465991616249
1683586972650204400,8.156204345703125,-0.6994020683199167,0.023711861107498407,-0.560169538718462
1683586972660211200,8.166211181640625,-0.7061293307483196,0.13987740337625146,-0.5794985085666179
1683586972670217200,8.17621728515625,-0.6148223354041576,0.25058804123997686,-0.5716869580328464
1683586972680224500,8.186224609375,-0.5169751246362925,0.30576822280064225,-0.5554641375064849
1683586972690231300,8.196231201171875,-0.46217561295628545,0.25304434835091233,-0.562547373765707
1683586972700238300,8.20623828125,-0.5870224743306637,0.12467822680920362,-0.6116027888357639
1683586972710244400,8.216244384765625,-0.817825618648529,-0.001154138471186161,-0.6776584385454655
1683586972720251400,8.22625146484375,-1.0153460865676402,-0.10816519116461276,-0.694401483553648
1683586972730258200,8.236258056640626,-1.2507049944937227,-0.18972528399825095,-0.7404249835819006
1683586972740265500,8.246265380859375,-1.5420868184149263,-0.19573212319761513,-0.8167424995869398
1683586972750271200,8.256271240234375,-1.9573335069358349,-0.10804843291714787,-1.0135247163593768
1683586972760278300,8.2662783203125,-2.611578921189904,-0.039572131931781766,-1.4580530289441347
1683586972770285300,8.276285400390625,-3.3472242692798373,0.02963628272041678,-2.093174640533328
1683586972780292400,8.286292236328125,-3.932788361495733,0.04597644601613283,-2.739980844697356
1683586972790299400,8.29629931640625,-4.102991783422231,0.06829656050428748,-3.2337264849156138
1683586972800305400,8.306305419921875,-3.72275678704977,0.1142648232139647,-3.470814993113279
1683586972810312200,8.316312255859375,-2.816938412171602,0.19260726917535065,-3.3934149425685405
1683586972820319500,8.326319580078126,-1.9518857629239559,0.32668037018701435,-3.272397284093499
1683586972830326300,8.336326171875,-1.8960364499300717,0.5411591333001852,-3.500390047165751
1683586972840332300,8.346332275390624,-2.639212193524837,0.7998848882883787,-3.8058793068945405
1683586972850339300,8.35633935546875,-3.133092273777723,0.9114332921504974,-3.7870541949152945
1683586972860346400,8.366346435546875,-3.2645746276438232,0.8352759351432323,-3.4096740034520625
1683586972870353200,8.376353271484374,-3.265209418416023,0.6423465944066643,-2.8761902270853517
1683586972880360400,8.3863603515625,-3.1504210097193717,0.37364918824136256,-2.3386662354171275
1683586972890366200,8.3963662109375,-2.8188790248453617,0.08657587516903877,-1.746978691884875
1683586972900373200,8.406373291015624,-2.4205899008661507,-0.10650661030262708,-1.0545794880643486
1683586972910380300,8.41638037109375,-2.2077876926630733,-0.22891572313606737,-0.3146595313951373
1683586972920387300,8.42638720703125,-2.334458262333274,-0.3359399275720119,0.3951709919586777
1683586972930393300,8.436393310546874,-2.6782091559171675,-0.5082134337708354,1.0055088754251598
1683586972940400400,8.446400390625,-3.0024130529880524,-0.8004574274793267,1.5017022010564802
1683586972950407200,8.4564072265625,-3.0740310130000115,-1.2390639487996697,1.8553256693571805
1683586972960414500,8.46641455078125,-2.86716696267426,-1.7640306567117572,2.03016171952039
1683586972970421200,8.476421142578126,-2.5772002662479876,-2.1684984693259,1.892333796019852
1683586972980427300,8.48642724609375,-2.311163895985484,-2.294492162647843,1.3440490486234427
1683586972990434300,8.496434326171874,-2.1612860537290572,-2.134602483334392,0.6464683505117893
1683586973000441300,8.50644140625,-2.0042636004149914,-1.7728282956734298,0.014110358417034148
1683586973010448100,8.5164482421875,-1.7553326787322758,-1.2954580361947416,-0.5531622903048992
1683586973020454400,8.526454345703126,-1.4088760333210228,-0.9082217827580868,-1.0992983352348207
1683586973030461200,8.536461181640625,-0.9118354432106017,-0.6232149006962776,-1.5469278287053108
1683586973040468200,8.54646826171875,-0.3249515005677938,-0.3308192235574126,-1.786736994038522
1683586973050475300,8.556475341796874,0.177509361025691,-0.007906827601790428,-1.8905606488674878
1683586973060481300,8.566481201171875,0.40994916663467884,0.2959884409338236,-1.8685455086752771
1683586973070488300,8.57648828125,0.36467034749388694,0.5434614188931882,-1.733675850458443
1683586973080495400,8.586495361328126,0.23368892888724802,0.6651676441542804,-1.5107050072014332
1683586973090504000,8.59650390625,0.209330148178339,0.7161417523272335,-1.1946207037001848
1683586973100510700,8.6065107421875,0.37666473667025563,0.5835077442079782,-0.7816410833284259
1683586973110517000,8.61651708984375,0.5833189436376095,0.3361459715381265,-0.3832078747034073
1683586973120524000,8.62652392578125,0.568798835375905,0.21917992654144763,0.09653174425512552
1683586973130530800,8.63653076171875,0.3379740637481212,0.26980975132137536,0.6248351953744888
1683586973140537900,8.646537841796874,0.10713643263876438,0.329668738348037,1.130409805074334
1683586973150544000,8.6565439453125,-0.047400049078464505,0.2794546547621488,1.5384455393031238
1683586973160551000,8.666551025390625,-0.15567805296778678,0.050961833213269706,1.7238126280918717
1683586973170558000,8.676557861328124,-0.22346739460229872,-0.2692154386900365,1.669172983148694
1683586973180565000,8.68656494140625,-0.2133826384395361,-0.567171307239309,1.506338920946419
1683586973190572000,8.696572021484375,-0.1421615687906742,-0.7753561578400433,1.3049085861071943
1683586973200578000,8.706578125,-0.014396189621090889,-0.8550953188568353,0.9944543974474072
1683586973210584800,8.716584716796875,0.14981471389234066,-0.8088321648538113,0.5800920905455946
1683586973220592000,8.726592041015625,0.18063596861362458,-0.6413409975606947,0.10846738898158073
1683586973230599000,8.736598876953124,0.10801029286384582,-0.3989748412210494,-0.33731589210033414
1683586973240605000,8.74660498046875,0.05311316602826118,-0.13761676496788858,-0.7035077500730752
1683586973250612000,8.756612060546875,0.02931727989912033,0.10857705990113317,-1.015519981829822
1683586973260619000,8.766618896484376,0.001972176855802536,0.3279428644035011,-1.2693234779849647
1683586973270625800,8.776625732421875,0.09628419923484324,0.4980425702271983,-1.4071046397343276
1683586973280633000,8.786633056640625,0.4341057027697563,0.5041757026873529,-1.451890122400224
1683586973290638800,8.796638916015626,0.7998872263759375,0.3934606443768367,-1.4273288048565387
1683586973300646000,8.80664599609375,0.9723334587931632,0.19060352813750503,-1.3239502634465694
1683586973310653000,8.81665283203125,0.9833914439022541,-0.011387472791783511,-1.0178218290314078
1683586973320660000,8.826659912109376,0.9697218149900436,-0.1167687688589096,-0.512080338332057
1683586973330665700,8.836665771484375,0.9428314699769019,-0.14318513968475163,0.1037085040166974
1683586973340673000,8.846673095703125,0.7555109090328216,-0.13242758056065068,0.7175970657020807
1683586973350679800,8.8566796875,0.4789057984828949,-0.07214793870281427,1.2749641142204402
1683586973360687000,8.86668701171875,0.267173265337944,-0.036377454943163315,1.8137194012492894
1683586973370692900,8.87669287109375,0.05672784939408302,-0.04302284777439199,2.215323641125858
1683586973380700000,8.886699951171876,-0.27263503787517546,-0.057009881205856795,2.5353420692056416
1683586973390707000,8.89670703125,-0.5197977808415889,-0.08548398827910422,2.739276203559339
1683586973400714000,8.9067138671875,-0.7392863349407911,-0.08869181701024062,2.81652252484709
1683586973410720800,8.916720703125,-0.8622223942577838,-0.18271538696987552,2.6116192532002924
1683586973420727000,8.92672705078125,-0.7471756268858909,-0.280501697863359,2.334590656541288
1683586973430733800,8.93673388671875,-0.4637666815400123,-0.17106851432323456,4.138668661481142
1683586973440740900,8.946740966796876,3.412358127969503,0.7194394786983728,6.015749651050568
1683586973450748000,8.956747802734375,7.428897954863309,0.8908893935546278,2.616139360973239
1683586973460754000,8.96675390625,3.2952059127509594,0.2513390788029879,-0.6208668762654066
1683586973470760700,8.9767607421875,-2.801533337768912,0.13619349069911985,-2.5753338878542182
1683586973480768000,8.98676806640625,-1.806448533463478,-0.022434388517588374,-3.11123992293179
1683586973490774800,8.99677490234375,3.233029150301218,-0.38695867860428984,-2.512872170983255
1683586973500782000,9.006781982421876,2.978252425199747,-0.36750246564727274,-2.059556594700366
1683586973510787800,9.016787841796875,2.4348703551530835,-0.3064198185771704,-1.1731821943521499
1683586973520795000,9.026794921875,1.7254840684354305,-0.24903076532799748,-0.5155379314400256
1683586973530802000,9.036802001953125,0.726703332221508,-0.08785480906367302,-0.08201397408097982
1683586973540809000,9.04680908203125,0.8575649238407611,0.10321728643365204,0.27153336024358865
1683586973550815000,9.05681494140625,1.4855705659449099,0.23946700083203612,0.5045606834169477
1683586973560822000,9.066822021484375,1.7855179736375808,0.3478515703683719,0.5857896446000784
1683586973570828800,9.076828857421875,1.7766490230053662,0.3848655057173222,0.4417401431709528
1683586973580835800,9.0868359375,1.3366636145472526,0.3090353713704273,0.040558074229210615
1683586973590843000,9.0968427734375,1.081914361974597,0.08407439547581598,-0.30519721797965466
1683586973600849000,9.106848876953125,1.1720505599737168,-0.12448464046586304,-0.4672808271408081
1683586973610856000,9.11685595703125,1.3029296872496605,-0.24243808906469494,-0.5428630146086215
1683586973620863000,9.126863037109375,1.487161634528637,-0.29967684712298215,-0.6098432318173349
1683586973630869800,9.136869873046875,1.6131214255809783,-0.30277364409454166,-0.6967663129888475
1683586973640875800,9.146875732421876,1.564412047469616,-0.2389485299158841,-0.7665180407375097
1683586973650883000,9.156883056640625,1.4675906726181507,-0.12803462456502018,-0.7582422336928546
1683586973660889900,9.166889892578125,1.4832657961338758,-0.10660124804982915,-0.6892002616487443
1683586973670897000,9.17689697265625,1.4067700009524822,-0.07682964851194993,-0.553063798366487
1683586973680904000,9.186904052734375,1.3686024751216173,-0.06680162750510499,-0.42745705853551624
1683586973690910000,9.196909912109374,1.437128898859024,-0.1324267585767433,-0.24449118566960096
1683586973700917000,9.2069169921875,1.4453566289782522,-0.24838603768367318,-0.049778176386654376
1683586973710924000,9.216924072265625,1.3875380617380142,-0.46029071252513676,0.2877455132454634
1683586973720930800,9.226930908203125,1.5112778386533259,-0.8170291345085948,0.8730132528632879
1683586973730937000,9.23693701171875,1.3508417775034904,-1.0016843487009406,1.7015058114767074
1683586973740944000,9.24694384765625,0.9586229133486747,-0.892549874112755,2.777484938183427
1683586973750951000,9.256950927734374,1.0572685810178517,-0.1881216116612777,4.109141538223624
1683586973760958000,9.2669580078125,2.0087118119955063,0.6538890020318329,5.317570402523875
1683586973770964000,9.2769638671875,3.328466377317905,1.0556368881627918,5.504290074965358
1683586973780970800,9.286970703125,2.560345577558875,0.7128468024350703,3.697139530712366
1683586973790978000,9.29697802734375,0.2437462125211954,0.23847059193952008,1.3501979266420006
1683586973800984800,9.30698486328125,-1.0595178212493657,0.007840950158191844,0.07892565267682075
1683586973810992000,9.3169921875,-1.5229793823629616,-0.038537272458709776,-0.5139882177799939
1683586973820998000,9.326997802734375,-1.27682026348114,0.04238233051430434,-0.7409539758920669
1683586973831005000,9.3370048828125,-0.3268307384431362,0.1293119875570759,-0.709414636029303
1683586973841012000,9.347011962890624,0.7682657611876725,0.05002283533010631,-0.6933750631153583
1683586973851019000,9.35701904296875,1.6614789215147494,-0.12298603593856096,-0.8012702051669359
1683586973861024800,9.367024658203125,2.1716285840451715,-0.30774295693971215,-0.932506767578423
1683586973871032000,9.377031982421874,1.9913088417738676,-0.3399395551348105,-1.0672454928919672
1683586973881038800,9.387038818359375,1.1060393339276313,-0.10517039326280354,-1.0921797354012728
1683586973891046100,9.397046142578125,0.33014263947010036,0.19347126559354363,-0.9587620295584202
1683586973901053000,9.407052978515624,-0.03507715860009193,0.33971221265234053,-0.7615148256227373
1683586973911059000,9.417058837890625,-0.14321721532344817,0.37058695112653073,-0.5264598690792918
1683586973921066000,9.42706591796875,-0.1267418813407421,0.3116309773541987,-0.17735650855153798
1683586973931073000,9.437072998046874,-0.14470423901081084,0.12247509074173867,0.15162848531603812
1683586973941079800,9.447079833984375,-0.2685042216807604,-0.10637881920449435,0.4582379812464118
1683586973951086000,9.457086181640625,-0.5194190106570721,-0.2820351727746427,0.7411158884555101
1683586973961092900,9.4670927734375,-0.771144531494379,-0.3786114868238568,0.9784130709677934
1683586973971100000,9.477099853515625,-0.9065203856676817,-0.4161481674052775,1.139509057331085
1683586973981107000,9.48710693359375,-0.9178945971190929,-0.3624750294066965,1.165475857758522
1683586973991113000,9.497113037109376,-0.801089003381133,-0.26218451713994145,0.941367242643237
1683586974001119700,9.50711962890625,-0.608456307503581,-0.17957316168770193,0.5536971278339624
1683586974011127000,9.517126953125,-0.4119336184501648,-0.13522738561332226,0.16346739166975022
1683586974021133800,9.5271337890625,-0.27533728257119655,-0.10196166034936904,-0.19695406620800493
1683586974031141000,9.53714111328125,-0.22561901967823503,-0.06645926207453012,-0.5025377262219787
1683586974041147000,9.54714697265625,-0.2529530168056488,-0.0448427658110857,-0.7392816587656736
1683586974051154000,9.55715380859375,-0.33783962371349335,-0.03514043309465051,-0.9257876884564756
1683586974061161000,9.567160888671875,-0.4745481877952814,-0.0305646496117115,-1.0748656125068663
1683586974071168000,9.57716796875,-0.6044622694313526,0.02005202342569828,-1.1300243128880858
1683586974081174000,9.587174072265626,-0.6476654513418674,0.03322173999175429,-1.0674737486898898
1683586974091179800,9.5971796875,-0.7067951011806726,0.03879997851550579,-0.9295663302123546
1683586974101186800,9.607186767578124,-0.8524509418278932,-0.0034067397035658356,-0.812903944337368
1683586974111193900,9.61719384765625,-1.0598182655006647,-0.08030468594506382,-0.7182628361344338
1683586974121201000,9.627200927734375,-1.1713444575309753,-0.19903774061426519,-0.6803139214903116
1683586974131206700,9.63720654296875,-1.1827367891609668,-0.3515693122498691,-0.681568305465579
1683586974141214000,9.6472138671875,-1.1393851386904716,-0.48790655880123374,-0.7429857739806175
1683586974151220700,9.657220703125,-1.1258511188566684,-0.5689148629710078,-0.8490268125981092
1683586974161228000,9.66722802734375,-1.1315174740552902,-0.6465292869187891,-0.9797644855767488
1683586974171233800,9.67723388671875,-1.157930264684558,-0.7435377087749541,-1.1143208400607107
1683586974181240800,9.68724072265625,-1.1521522658050058,-0.7732521712981164,-1.235982641658187
1683586974191248000,9.697247802734376,-1.1627478940993548,-0.7421075298413634,-1.3059990116924047
1683586974201255000,9.7072548828125,-1.2415583959639072,-0.6075511753574013,-1.2905062590062617
1683586974211260700,9.7172607421875,-1.3154735270023346,-0.3917028774566948,-1.1967013093665242
1683586974221268000,9.72726806640625,-1.3410036895781754,-0.23503201405927537,-1.0999497848808766
1683586974231274800,9.737274658203125,-1.341411101335287,-0.11127309405207633,-1.0051906032562254
1683586974241281800,9.74728173828125,-1.4199971467941999,-0.0238407481841743,-0.9697019412457942
1683586974251288800,9.757288818359376,-1.5058084673315286,0.0803282129511237,-0.9056579236194491
1683586974261294800,9.767294921875,-1.5358265889763831,0.17633973272442816,-0.816633778515458
1683586974271301600,9.777301513671874,-1.5168173526018858,0.27571225336343047,-0.6775009098961949
1683586974281309000,9.787308837890626,-1.5257020853251217,0.35644378641843794,-0.5230833783835173
1683586974291315700,9.797315673828125,-1.5849632525891064,0.3605526830419898,-0.42728696266561744
1683586974301321700,9.80732177734375,-1.7534312290251255,0.30498715542554855,-0.4197217881083488
1683586974311328800,9.817328857421876,-1.886888097834587,0.1353641637355089,-0.4998845813646912
1683586974321335800,9.827335693359375,-1.9543056835472583,-0.1565659417182207,-0.6137018069416285
1683586974331342800,9.8373427734375,-1.9513754753142594,-0.42332565781921144,-0.725293465423584
1683586974341350000,9.847349853515626,-1.9586340681403873,-0.5229132825136185,-0.7310436995133757
1683586974351356000,9.85735595703125,-1.9851427203595637,-0.45153673004209993,-0.6588087766468524
1683586974361363000,9.867363037109374,-2.051075035950541,-0.2799102895751595,-0.5270622188866139
1683586974371369700,9.87736962890625,-2.063942700830102,-0.13048136013001202,-0.48364480970352886
1683586974381376800,9.887376708984375,-2.1001456485897303,-0.04352583799362182,-0.5784568905591965
1683586974391383000,9.897383056640624,-2.1500760929286478,0.03510448499843478,-0.7476447057023644
1683586974401389800,9.907389892578125,-2.192711119562387,0.1229221769221127,-0.9409668451488018
1683586974411396900,9.91739697265625,-2.2495149568021295,0.23809622393548488,-1.096368127001822
1683586974421404000,9.92740380859375,-2.264430786383152,0.371198726349324,-1.2389581503376363
1683586974431410700,9.93741064453125,-2.1635838092774153,0.4747101003587246,-1.3436299464285373
1683586974441416700,9.947416748046875,-1.9444132350862025,0.538729275804758,-1.417126559793949
1683586974451424000,9.957424072265624,-1.7164140422731637,0.5394511603385209,-1.497405965167284
1683586974461430800,9.9674306640625,-1.5102701229155062,0.4369809659451246,-1.5703502053469418
1683586974471437800,9.977437744140625,-1.3701035273343325,0.23741145654171703,-1.5785083773612976
1683586974481443800,9.98744384765625,-1.3635329167723655,-0.010424947902560234,-1.506803908109665
1683586974491451000,9.997450927734375,-1.4042033653348684,-0.2684961845047772,-1.3968667388364673
1683586974501458000,10.0074580078125,-1.4389555297642946,-0.4639719948537647,-1.2530799069315195
1683586974511465000,10.01746484375,-1.4380670564919709,-0.6316572964794933,-1.1076350786864757
1683586974521470700,10.027470703125,-1.379587979516387,-0.717509825810045,-0.9364023137122393
1683586974531478000,10.03747802734375,-1.2406027026742696,-0.7348644268453121,-0.7497866861671209
1683586974541484800,10.04748486328125,-1.1179179877698422,-0.7115227142244577,-0.5357593200832605
1683586974551491800,10.057491943359375,-1.0502525647759438,-0.6081266371577978,-0.32268063302636146
1683586974561499000,10.067498779296875,-1.0611147350519894,-0.44990591396987434,-0.11488134767711163
1683586974571505000,10.0775048828125,-1.1195008730471134,-0.23148352779746054,0.09479922137409448
1683586974581511700,10.08751171875,-1.247124213397503,-0.03941255745589733,0.2019642955854535
1683586974591519000,10.09751904296875,-1.326416361299157,0.06314429230764508,0.232450619263947
1683586974601525800,10.10752587890625,-1.2796920195251702,0.05842647000551223,0.13511281932294367
1683586974611531800,10.11753173828125,-1.203878361389041,-0.0010110767386853695,-0.11580167739242314
1683586974621538800,10.127538818359374,-1.1577765354275702,0.03848068343326449,-0.4214207009807229
1683586974631545900,10.1375458984375,-0.9992337406784295,0.20276041439920664,-0.6561828120574354
1683586974641553000,10.147552978515625,-0.7109434530317783,0.37696123539879917,-0.7949351569265126
1683586974651560000,10.157559814453125,-0.26337270401120183,0.45165173472389575,-0.9355573873206973
1683586974661565700,10.167565673828125,0.24942250459194182,0.389715356901288,-1.0741963349431753
1683586974671573000,10.177572998046875,0.7174971124589443,0.2415501637816429,-1.1864359359398484
1683586974681579800,10.187579833984374,1.0657131687581538,0.06688859340250491,-1.2464771476656198
1683586974691586800,10.1975869140625,1.3241139295756816,-0.2134239933632314,-1.1823273315772413
1683586974701592800,10.2075927734375,1.4895254410505294,-0.5453982321746647,-0.9826327344894409
1683586974711599900,10.217599853515624,1.4703899479478597,-0.8285446541268378,-0.6404816773176193
1683586974721606700,10.227606689453125,1.313861415630579,-0.9357553210455923,-0.15889409240484237
1683586974731614000,10.237614013671875,1.0864438220977783,-0.8541852913398296,0.5071469735831022
1683586974741619700,10.24761962890625,0.8574795836448669,-0.6584778641920537,1.225275369682908
1683586974751626800,10.257626708984375,0.7086077035605907,-0.4019916317589581,1.9553107689365743
1683586974761633800,10.2676337890625,0.6103285311162472,-0.24232684724256395,2.606127377785742
1683586974771640800,10.277640869140624,0.5164508085012436,-0.21351459425613284,3.1043980942130087
1683586974781648000,10.28764794921875,0.3173603147864342,-0.30748452519923447,3.3772266088336704
1683586974791654000,10.29765380859375,0.07616320222616195,-0.42670229464545845,3.4821108786314725
1683586974801660700,10.30766064453125,-0.20817688648998736,-0.5518383482247591,3.424422952033579
1683586974811668000,10.31766796875,-0.4671171610116958,-0.5827629537226632,3.1313141581892965
1683586974821674800,10.3276748046875,-0.4389671713262796,-0.4565244918594137,2.6577850843086837
1683586974831680800,10.3376806640625,-0.054476855596899985,-0.28694579596882686,2.150720528312027
1683586974841687800,10.347687744140625,0.3868114521533251,-0.18853740765424445,1.5689169576734303
1683586974851694800,10.35769482421875,0.9040227236330509,-0.17604292346863076,1.0167740735441446
1683586974861702000,10.367701904296876,1.4629437235951424,-0.2564744323974475,0.5149591086387634
1683586974871709000,10.377708984375,1.848591977187991,-0.3002122143750079,0.08556494456082582
1683586974881715000,10.38771484375,1.892802290314436,-0.19870061761438845,-0.2236927277907729
1683586974891722000,10.397721923828126,1.6520248644709585,0.05223667545467615,-0.43342356572449203
1683586974901728800,10.407728759765625,1.4340578208506107,0.42555663174167274,-0.4109358395844698
1683586974911735800,10.41773583984375,2.3766192417144776,0.9717259944193064,0.6366276322379708
1683586974921742000,10.4277421875,4.413728880676627,1.4995393239341674,3.0395319465488195
1683586974931748900,10.437748779296875,4.640801606294512,1.0175555793106554,2.7499913665801285
1683586974941755600,10.447755615234374,2.1622908468574282,-0.01577135043181479,0.08857143290042876
1683586974951763000,10.457762939453126,-1.960432641994953,-0.4361706724755466,-1.6065087294429539
1683586974961769000,10.46776904296875,-2.2265455846250055,-0.539442867434211,-1.9129244563668966
1683586974971775700,10.477775634765624,1.0778887597203255,-0.36912213927097615,-1.2098492524921893
1683586974981783000,10.487782958984376,1.9867641840815542,-0.17434952702159062,-0.6065715166702866
1683586974991789800,10.497789794921875,0.6259767666250466,-0.049717842767853286,-0.238687175565958
1683586975001796900,10.507796875,-0.47106911350786684,-0.1115182096532546,0.021950404392927884
1683586975011803000,10.517802978515626,-0.9994634577810764,-0.13721202009189873,0.1407493639051914
1683586975021810000,10.527809814453125,-0.9521323822855949,-0.06386047775298356,0.17753434933647513
1683586975031817000,10.53781689453125,-0.25926234608292575,0.06322773280739784,0.29159838928133247
1683586975041823700,10.54782373046875,0.4915133511215448,0.17337297360701484,0.2730385041095316
1683586975051829800,10.557829833984375,0.8171756303071975,0.23005250861365348,0.20323124678134916
1683586975061837000,10.567837158203124,1.030354270607233,0.2290515148775652,0.12052877897955476
1683586975071843800,10.57784375,1.2822796979308129,0.20969951121369376,0.06028050037436187
1683586975081851000,10.587850830078125,1.3184060733228922,0.2240003872341476,0.0007531564548611641
1683586975091857700,10.597857666015624,1.2561959931254387,0.26758621178669856,-0.06503909307830036
1683586975101863700,10.60786376953125,1.2083996382057667,0.26769851305475456,-0.036340456534177064
1683586975111870700,10.61787060546875,0.8945107989221811,0.23332729250062256,0.06044087856784463
1683586975121877800,10.627877685546874,0.5517360568940639,0.09812898685131222,0.12035422613024711
1683586975131884500,10.637884521484375,0.5077718274831772,-0.06585945128416643,-0.02854107136223465
1683586975141890800,10.647890869140625,0.6870978825420141,-0.011108692383021116,-0.20438779640533028
1683586975151897600,10.657897705078126,0.871806215161085,0.07559325685109942,-0.14435933456327765
1683586975161904600,10.667904541015625,0.9107406337112188,-0.0030761012434028087,-0.12144019473604857
1683586975171911700,10.67791162109375,0.9782382989227771,-0.09922662762859835,-0.22278774177506563
1683586975181917700,10.687917724609376,1.192971767449379,-0.14061013809759168,-0.3401989001907408
1683586975191924500,10.697924560546875,1.373897658920288,-0.1336972169039771,-0.41032749842777844
1683586975201931800,10.707931884765625,1.4051684109747409,-0.13441904663881285,-0.48449806553199887
1683586975211938600,10.7179384765625,1.3301064479887486,-0.15560009236074984,-0.5713736542999744
1683586975221945900,10.72794580078125,1.1834031441152095,-0.20255718344468623,-0.6532111027702688
1683586975231951600,10.73795166015625,1.1152303561210632,-0.22822237057704478,-0.6721351450793445
1683586975241958700,10.747958740234376,1.0758189677089451,-0.2463393342869356,-0.6231636089004576
1683586975251965700,10.757965576171875,1.031566569006443,-0.3217365936418995,-0.5804989177808165
1683586975261972700,10.76797265625,0.9331628933995961,-0.3242410142108798,-0.4584899101808667
1683586975271978500,10.777978515625,0.8064438084125518,-0.3206557761352509,-0.22627689906507728
1683586975281985800,10.78798583984375,0.689793112975359,-0.3403697267130017,0.021224574336409566
1683586975291992600,10.79799267578125,0.6562707826018334,-0.357339347018674,0.3501835569798946
1683586975301999600,10.80799951171875,0.6994336325019598,-0.43321766788884997,0.7782768675923347
1683586975312005600,10.818005615234375,0.5322895981460809,-0.6084739527581259,1.2566191869735717
1683586975322012700,10.8280126953125,0.5341460396677256,-0.5143717006722465,1.7358824205920098
1683586975332019500,10.83801953125,1.556893926924467,0.1473886557891965,2.338893029910326
1683586975342026800,10.84802685546875,3.5196062042891976,0.9357464801520109,2.6466867671892045
1683586975352033500,10.858033447265624,5.086335881051421,1.201606909325719,2.2417788095921276
1683586975362039600,10.86803955078125,3.927957872599363,0.9434414185687899,0.8418664194494485
1683586975372046600,10.878046630859375,1.2939099299699068,0.658168505981937,-0.713726654009521
1683586975382053600,10.8880537109375,-0.25234745212793347,0.521633946760185,-1.3899097593054175
1683586975392060700,10.898060791015626,-0.7869090868592262,0.4573447952663526,-1.4368667407914995
1683586975402066700,10.908066650390625,-0.6501333027601242,0.49476555785052473,-1.0621727196723223
1683586975412073700,10.91807373046875,-0.22907179048061369,0.6207138776607811,-0.5756710592329501
1683586975422080800,10.928080810546875,0.40203649381399154,0.6458079869069159,0.005984627367556095
1683586975432087600,10.938087646484375,0.9388456152111291,0.46130957071147854,0.651248862786591
1683586975442093600,10.948093505859376,1.0612170263826846,0.10556721056066452,1.1812924355715513
1683586975452100900,10.958100830078125,0.8611538882434367,-0.4443602625414729,1.5553934592336416
1683586975462107600,10.968107666015625,0.4439046277284622,-1.052974317890033,1.674584779064357
1683586975472114700,10.97811474609375,0.00946224035024643,-1.532793066499382,1.645410999289155
1683586975482121700,10.988121826171875,-0.3312450477540493,-1.749246636816859,1.678087818749249
1683586975492127700,10.998127685546875,-0.4444739520490169,-1.6732818797722457,1.8191764976114033
1683586975502134800,11.008134765625,-0.4220575375795364,-1.324530985943973,1.8716075265944003
1683586975512141800,11.018141845703125,-0.35931437341868877,-0.8830449636645614,1.6842805359095334
1683586975522148600,11.028148681640625,-0.21358429849147795,-0.4701837089754641,1.41189362757653
1683586975532155000,11.03815478515625,0.01121112984418869,-0.2026284585826099,1.1458470281809567
1683586975542161700,11.04816162109375,0.15627601886093614,-0.11327040534913539,0.8305521214917302
1683586975552168700,11.058168701171875,0.1708440579175949,-0.12757095257602633,0.4763397473871708
1683586975562175700,11.06817578125,0.12214403215646744,-0.1672315665088594,0.17902999472171066
1683586975572181800,11.078181640625,0.09866612593531608,-0.21622940617278216,0.039295945338904854
1683586975582188500,11.0881884765625,-0.03677928634285926,-0.2741935193635523,-0.12299889542013406
1683586975592195800,11.09819580078125,-0.273669057098031,-0.2934587763257325,-0.31966976077258585
1683586975602202600,11.10820263671875,-0.4903928226590156,-0.21511004675403236,-0.49598728166520595
1683586975612210000,11.1182099609375,-0.5792880806863308,-0.047738925644010305,-0.6262438931286335
1683586975622215700,11.128215576171876,-0.43467385804653164,0.08548822606280446,-0.6739736125528812
1683586975632222700,11.13822265625,-0.22685586799681184,0.14298136074095963,-0.7066653373211622
1683586975642229800,11.148229736328124,-0.18002222062945364,0.1621339511089027,-0.7820598932623862
1683586975652236800,11.15823681640625,-0.23219781354665756,0.12288564430400728,-0.8829673683837056
1683586975662242600,11.16824267578125,-0.27130525057613847,0.013807722208648919,-0.9120283354341984
1683586975672249900,11.178249755859374,-0.31982115194201466,-0.11445216247960924,-0.878261090388894
1683586975682256600,11.188256591796875,-0.4923422031611204,-0.22854893565028905,-0.7878080815255641
1683586975692263700,11.198263671875,-0.765258396065235,-0.2502560328066349,-0.6679466073483228
1683586975702270700,11.208270751953124,-0.9639601827234029,-0.23014219619110227,-0.5452560472249984
1683586975712276700,11.21827685546875,-0.9985118561446666,-0.23642989815846085,-0.4314876292258501
1683586975722283500,11.228283447265625,-1.007151674196124,-0.21700214411094784,-0.4231681291699409
1683586975732290800,11.238290771484374,-1.0678256308674812,-0.2386141103297472,-0.4996206697314977
1683586975742297600,11.248297607421875,-1.148267533326149,-0.2635987678520381,-0.6352420230984688
1683586975752303600,11.2583037109375,-1.2216390590071677,-0.32395869013816114,-0.7829004357397555
1683586975762310700,11.268310546875,-1.3053928624927997,-0.43920507173538204,-0.957240519079566
1683586975772317700,11.278317626953125,-1.4495581723213196,-0.5562272308334708,-1.121411675104499
1683586975782324700,11.28832470703125,-1.6008341909378767,-0.5725777693927288,-1.2226993817150593
1683586975792330800,11.298330810546876,-1.7364760025709867,-0.4560211819797754,-1.2838280964165925
1683586975802337500,11.308337646484375,-1.8503262536346912,-0.2837748560488224,-1.316604576858878
1683586975812344800,11.3183447265625,-1.8765584270000457,-0.10438713393062353,-1.3358587279051541
1683586975822351600,11.3283515625,-1.8438327999621629,0.0424117392718792,-1.3342618141025304
1683586975832358700,11.338358642578125,-1.7638690364092586,0.2040934165686369,-1.3209095805764197
1683586975842364700,11.34836474609375,-1.5949445483773945,0.371736632618308,-1.2678250561207531
1683586975852371700,11.358371826171876,-1.318881874141097,0.5355237577617168,-1.0960282275229691
1683586975862378500,11.36837841796875,-0.9600427170187235,0.6311544615238904,-0.8481675654202699
1683586975872385800,11.3783857421875,-0.6837070710599422,0.6631079351454973,-0.5790916813313961
1683586975882391800,11.388391845703126,-0.5340788196504116,0.591079933027923,-0.30956980704069137
1683586975892398600,11.398398681640625,-0.5010895732402801,0.4222457536280155,-0.03428162430822849
1683586975902405600,11.408405517578124,-0.5582546450078487,0.20067220994830132,0.22723463818132875
1683586975912412700,11.41841259765625,-0.6929460240483284,0.03671557345688343,0.4109054444462061
1683586975922418700,11.428418701171875,-0.8704168066293001,-0.05800210711359977,0.4547100993812084
1683586975932425700,11.43842578125,-0.992485435461998,-0.10093640895485878,0.318323022338748
1683586975942432800,11.448432861328126,-0.8173457261770963,-0.07510814021527766,0.1174134965032339
1683586975952439800,11.458439697265625,-0.44081718310713763,-0.05307400306165218,-0.1239098727852106
1683586975962446600,11.468446533203124,-0.05132043739259243,-0.06552870322614908,-0.35501346135437484
1683586975972452600,11.47845263671875,0.2812953141927719,-0.09462298802435398,-0.5166992303043604
1683586975982460000,11.4884599609375,0.40081016688942905,-0.08701602015197277,-0.5963011748075485
1683586975992466700,11.498466796875,0.25260230367183684,0.027173838129639624,-0.6169727914363146
1683586976002473500,11.508473388671876,-0.03326864787340164,0.24350626628547906,-0.5762538275569677
1683586976012479700,11.518479736328125,-0.21978256860971448,0.42614889854639765,-0.5104004224210977
1683586976022486800,11.52848681640625,-0.3669786244362592,0.6080395433962344,-0.47698798216283317
1683586976032493600,11.53849365234375,-0.43991175870001314,0.7546335416764021,-0.42262627737820146
1683586976042500600,11.54850048828125,-0.39712475637495515,0.7902657038107513,-0.36815117534697056
1683586976052506600,11.558506591796874,-0.25268764386773107,0.6595496581420301,-0.3221861275076866
1683586976062513700,11.568513671875,-0.12345511475503444,0.35638621101230383,-0.32585341784358024
1683586976072520700,11.578520751953125,-0.02615267838835716,-0.07696633530259132,-0.3223901256471872
1683586976082527700,11.58852783203125,0.005863339075446129,-0.4858157240018248,-0.25097382568717
1683586976092535000,11.59853515625,-0.03372925112247467,-0.7686474539816379,-0.1276525664448738
1683586976102541000,11.608541015625,-0.21951018140912054,-0.8367860474452375,0.009850070624053478
1683586976112547800,11.6185478515625,-0.49278760884106154,-0.6773463038563728,0.12558102086782455
1683586976122555100,11.62855517578125,-0.6484890426844359,-0.39718613117337226,0.17278671641796825
1683586976132562000,11.63856201171875,-0.5276525859951973,-0.12394611314237117,0.13786416385769842
1683586976142568000,11.64856787109375,-0.36323709982037544,0.018715806385874747,0.03302460998445749
1683586976152575000,11.658574951171875,-0.16242577366232872,0.03178016288131475,-0.011583470287919043
1683586976162582000,11.66858203125,-0.0030512042641639707,-0.06526069993972777,0.017312953850626943
1683586976172588800,11.6785888671875,0.011079027897119521,-0.2241314114689827,0.04949906718432903
1683586976182595000,11.688594970703125,-0.1199275251507759,-0.35144729330539703,0.14316519287526608
1683586976192601900,11.698601806640625,-0.2906885809600353,-0.41580373788177966,0.25894407391399143
1683586976202609000,11.70860888671875,-0.4758820667475462,-0.3607148878663778,0.322276728400588
1683586976212616000,11.718615966796875,-0.5269944143474101,-0.25439678587317466,0.3217521200045943
1683586976222623000,11.728623046875,-0.4422603676527738,-0.16537965503185986,0.2547220723047852
1683586976232628700,11.738628662109376,-0.3064940528571605,-0.17125351550132034,0.09874678995609283
1683586976242636000,11.748635986328125,-0.12450608511269091,-0.2172726316154003,-0.047428106129169464
1683586976252642800,11.758642822265625,0.003946691799163818,-0.25898878983855245,-0.10432634365409613
1683586976262650000,11.768650146484376,0.009983049353957175,-0.26170330949425696,-0.08988748393505812
1683586976272656000,11.77865576171875,-0.02224398051202297,-0.21212065567970276,0.00918809958398342
1683586976282663000,11.788662841796874,-0.07940145349502563,-0.1481564252912998,0.10414163473695516
1683586976292670000,11.798669921875,-0.22334055335223674,-0.09329495429098605,0.18587620735466479
1683586976302677000,11.808677001953125,-0.407175610268116,-0.0386339742988348,0.20044863032549617
1683586976312682800,11.818682861328124,-0.5593085379749536,-0.006693067897856235,0.22049510079324244
1683586976322690000,11.82868994140625,-0.5955395427852869,0.011751520331203937,0.2470899699911475
1683586976332696800,11.83869677734375,-0.5306108512789011,0.0024368717581033706,0.28188246643096204
1683586976342703900,11.848703857421874,-0.348638665625453,-0.04736147063374519,0.2890995582029223
1683586976352710000,11.8587099609375,-0.13880816670954227,-0.17076807007193565,0.24525983195453882
1683586976362717000,11.868717041015625,-0.07121697799563408,-0.29131489616483447,0.12531915506124497
1683586976372723700,11.8787236328125,-0.16631050614118575,-0.36404900072515006,-0.03454173654913902
1683586976382731000,11.88873095703125,-0.30870763725340367,-0.27536446283906696,-0.20729045904427765
1683586976392737800,11.89873779296875,-0.39102527045607566,-0.03331774771213531,-0.26435703887343404
1683586976402743800,11.908743896484374,-0.4241407735943794,0.27562486734092234,-0.27942250605821606
1683586976412750800,11.918750732421875,-0.43543139841556544,0.4865095514848828,-0.33840281055420635
1683586976422758000,11.9287578125,-0.3801309514760971,0.6257458804786205,-0.39417321309298275
1683586976432765000,11.938764892578124,-0.2506640290856361,0.6519084957391024,-0.4436182120025158
1683586976442771000,11.94877099609375,-0.07957447197437285,0.5670838481515645,-0.5296268086776137
1683586976452778000,11.958778076171875,0.02446399464905262,0.41885464988499876,-0.5981006254449487
1683586976462785000,11.968784912109374,0.02201952410638332,0.2898001076877117,-0.637097295576334
1683586976472791800,11.978791748046875,-0.03533843988478184,0.19271657476872206,-0.6159782274410128
1683586976482797800,11.9887978515625,-0.08597264857888222,0.15309037456214428,-0.4984574711710214
1683586976492805000,11.99880517578125,-0.1364887838512659,0.18277385742515326,-0.32668811510205265
1683586976502812000,12.00881201171875,-0.13790624943375587,0.19281798931658267,-0.1830024054840207
1683586976512818700,12.018818603515625,-0.11421382367908954,0.17829378940165042,-0.04293400958031416
1683586976522826000,12.028825927734376,-0.0791629685640335,0.13932517632097005,0.11294336535185574
1683586976532832000,12.03883203125,-0.04316927964091301,0.05324906736761331,0.2269236725360155
1683586976542838800,12.0488388671875,-0.02012859579324722,-0.049093993514776224,0.31752105830609795
1683586976552846000,12.05884619140625,-0.07919628631174563,-0.1373144210204482,0.3637541094318032
1683586976562852900,12.068852783203125,-0.19016133732795715,-0.16610037052184343,0.37977906929850574
1683586976572859100,12.078859130859374,-0.34274902306497096,-0.09765548758804797,0.35821196513473985
1683586976582866000,12.088865966796876,-0.4237526510596275,0.07484744345247744,0.31692367693483825
1683586976592873000,12.098873046875,-0.45754736863374706,0.26012363908737896,0.22334873665869234
1683586976602880000,12.1088798828125,-0.4222036680519581,0.3624611470118165,0.08923311167955399
1683586976612886000,12.118885986328126,-0.2883200982630253,0.37536797485798595,-0.08510814070403576
1683586976622892800,12.128892822265625,-0.1381611009776592,0.32495179282873865,-0.253784499193728
1683586976632900000,12.138900146484374,-0.005896072301268577,0.19524433968067167,-0.34373394244909283
1683586976642907000,12.148906982421876,0.06406652171909809,0.05904898581802845,-0.3394473511710763
1683586976652914000,12.158913818359375,0.051204117536544795,-0.04419599234014749,-0.28832272861152886
1683586976662920000,12.168919921875,-0.02170505132973194,-0.10097177252918481,-0.20424305417239666
1683586976672927000,12.178927001953125,-0.08371288695335388,-0.08534224172085524,-0.062552317763865
1683586976682934000,12.18893408203125,-0.1926338649213314,-0.05418547143489122,0.03880290112495422
1683586976692941000,12.198941162109374,-0.2821265043199062,-0.0392787019431591,0.07414280231446027
1683586976702946800,12.20894677734375,-0.3196124776273966,-0.04413549432456493,0.06544131720364094
1683586976712954000,12.2189541015625,-0.31059739652276036,-0.0846224030137062,0.032518121767044064
1683586976722961000,12.2289609375,-0.25414485693871974,-0.11878946103155612,0.00919599062949419
1683586976732968000,12.238968017578125,-0.16884499305486678,-0.14150456618666649,-0.03420183707028627
1683586976742974000,12.248973876953125,-0.15033669193983076,-0.13849135584533215,-0.12263298471719025
1683586976752981000,12.25898095703125,-0.19733575900197028,-0.12865326792001724,-0.23242723838835952
1683586976762987800,12.26898779296875,-0.17787293364107606,-0.07645575543195009,-0.3328302711188793
1683586976772995000,12.2789951171875,-0.16786884149909018,0.01160889699012041,-0.3950523340150714
1683586976783000800,12.289000732421876,-0.12724690825343132,0.13779957418888805,-0.41952831136286256
1683586976793007900,12.2990078125,-0.030430209577083586,0.2547629888370633,-0.36343642178475855
1683586976803015000,12.309014892578125,0.01964636523425579,0.3266749633595347,-0.23768209017664194
1683586976813022000,12.31902197265625,0.03187923934161663,0.3115197720646858,-0.07277472883164882
1683586976823029000,12.329029052734375,0.04054536087810993,0.21592413961589335,0.13713643410503865
1683586976833035000,12.339034912109375,0.07309270873963833,0.11517565444856881,0.3594841770276427
1683586976843041800,12.349041748046876,0.117622170817852,-0.007310907535254955,0.5565969409286976
1683586976853049000,12.359049072265625,0.12585106998085974,-0.09005874884873628,0.715037736608088
1683586976863056000,12.369055908203125,0.13418752117156982,-0.10972674139291047,0.8529565532624721
1683586976873062000,12.379061767578126,0.22096914804577827,-0.12429974888563156,0.9418605791181326
1683586976883069000,12.38906884765625,0.39054537798464295,-0.16057167022824287,1.0009621719062327
1683586976893076000,12.399075927734375,0.5604805043637752,-0.19191811786741017,1.0032897380709647
1683586976903082800,12.409082763671876,0.6843383547008037,-0.2420639585226774,0.9191238466531038
1683586976913089000,12.419089111328125,0.8151461703062057,-0.2922396097943187,0.8047238527521491
1683586976923096000,12.429095947265624,0.8566986624002456,-0.2983838116377592,0.7297311556100845
1683586976933102800,12.439102783203126,0.7868997345089912,-0.25358020879328247,0.5835948379695415
1683586976943110000,12.44910986328125,0.6458399894803762,-0.17560118931680918,0.3825561327964067
1683586976953116000,12.459115966796874,0.4955494747698307,0.0002738485053181648,0.16540391269028185
1683586976963123000,12.469123046875,0.40482933940291405,0.17760288452804088,-0.005941080486774444
1683586976973130000,12.4791298828125,0.2734521994769573,0.2784551223307848,-0.2164300433114171
