time,seconds_elapsed,z,y,x
1684099577577074000,0.015073974609375,-1.4405372459977865,-0.5159691624641418,0.36796091347187754
1684099577587092700,0.0250927734375,-1.6496248175919055,-0.1668260544478893,0.2843679448374547
1684099577597110800,0.03511083984375,-1.6658470535963772,0.19518354940414429,-0.09444441658705473
1684099577607129900,0.0451298828125,-2.0529560273915526,0.3839741829007864,-0.6565961420986801
1684099577617147600,0.055147705078125,-2.1617162618398664,0.6466624117791653,-0.9451320750694722
1684099577627165700,0.065165771484375,-1.9142530746221542,0.7317886726617813,-0.8704416488096117
1684099577637184500,0.0751845703125,-1.7080904505640266,0.5496744481891394,-0.9880756561957299
1684099577647202800,0.085202880859375,-1.8826497296124696,0.11217501132786273,-1.0612500518694519
1684099577657222000,0.095221923828125,-2.0548609842300416,-0.27010931878983974,-0.5907550119224936
1684099577667239700,0.10523974609375,-2.519637719595432,-0.36263504227399823,0.08677181786624714
1684099577677257700,0.1152578125,-3.3890538247495887,-0.11701017639935016,0.874737154046446
1684099577687276800,0.12527685546875,-4.013771823485196,0.18646248281002042,1.4011203046277165
1684099577697294600,0.135294677734375,-3.7873210291579364,0.2966238162279129,2.0142723687320947
1684099577707313700,0.145313720703125,-2.004067785581946,0.1150175412774086,1.967020934344083
1684099577717331700,0.155331787109375,0.30063159056454897,0.2118874314457178,1.0197298546098172
1684099577727349800,0.165349853515625,1.6017629962205886,0.15562018530070781,-1.150842936772108
1684099577737368800,0.175368896484375,2.3181419183045624,0.45087855839431284,-2.410295155214518
1684099577747386600,0.18538671875,2.1109785927712914,0.6364420465379953,-1.8270950156509875
1684099577757405700,0.19540576171875,1.5240727305576205,-0.2063753900259733,-0.671505980330333
1684099577767423700,0.205423828125,1.6132026741236447,-0.877047038424015,-1.1215304061133413
1684099577777441800,0.21544189453125,1.713739270105958,-0.13999942232072352,-2.6466902743205427
1684099577787460900,0.2254609375,1.1608303700402378,1.4553607211202382,-3.4522517469406124
1684099577797478700,0.235478759765625,0.7941226714998483,2.7467852640151977,-3.9503929917693137
1684099577807497700,0.245497802734375,0.905892170766741,2.4563316608548162,-4.0473008758604525
1684099577817515500,0.255515625,0.32603461962938307,0.9929021995693444,-2.662403976280987
1684099577827533800,0.265533935546875,-0.30134412274807687,-0.056927171358466144,-1.104065841897577
1684099577837553000,0.275552978515625,-0.7937515000998974,-0.341546077015996,-0.21840653101615606
1684099577847570700,0.28557080078125,-0.7672467934034765,-0.8934744416117668,0.4841262730775401
1684099577857589800,0.29558984375,-0.8647679870873689,-1.0949825178623198,0.9909496772620826
1684099577867607800,0.30560791015625,-1.1468630733557046,-0.9541402149766683,1.7966148294523356
1684099577877626600,0.315626708984375,-1.3085704696156084,-0.8373240998446941,2.4889970821380616
1684099577887644700,0.325644775390625,-1.1090706644475459,-0.465682744294405,3.1472967402189966
1684099577897662700,0.335662841796875,12.139836927223206,0.2482645667284727,19.329194304561614
1684099577907681800,0.345681884765625,4.162585543641447,-2.9918291151314973,-0.746337276365608
1684099577917699800,0.355699951171875,2.095636062210798,0.31051673250198364,-3.7761376641035076
1684099577927718700,0.36571875,1.3253775197707116,3.095266693252325,-0.004767287467047572
1684099577937736700,0.37573681640625,-0.9291507351487874,2.4721318720549346,-0.37693376286998387
1684099577947754500,0.38575439453125,-1.011743678161502,1.5520646070718764,-0.7349074622694403
1684099577957773600,0.395773681640625,-0.8397393442928791,1.9934604668498037,-0.7664904951434582
1684099577967791900,0.4057919921875,-0.3864240602709353,2.1164064630389214,-0.5177915555857122
1684099577977810700,0.415810791015625,-0.6448008556909859,1.355538410887122,-0.12517382830642163
1684099577987828700,0.425828857421875,-1.9214071841605007,0.857893425142765,0.7104612224727869
1684099577997846800,0.4358466796875,-2.353961858095974,0.1893874303460121,1.026969304344058
1684099578007865600,0.445865478515625,-1.3369623052328825,0.09834580793976783,0.5304664743721484
1684099578017884000,0.4558837890625,-0.07618672923222183,0.43727381141185756,-0.09776903096511959
1684099578027902700,0.46590283203125,0.32032676337659355,0.1754407380580902,-0.27979236228391524
1684099578037920800,0.475920654296875,-0.6665754651255905,0.01182020165324211,-0.1411990073688328
1684099578047939800,0.48593994140625,-1.4482950205177068,-0.5694020619660616,0.42187239027097817
1684099578057957600,0.49595751953125,-1.5823479555241762,-0.599683218461275,0.43018852932602164
1684099578067975700,0.5059755859375,-0.8949433451205492,-0.808286221408844,0.06765110220760107
1684099578077994800,0.515994873046875,-0.33112405172288417,-0.6837924112558365,0.45765652809664603
1684099578088012800,0.5260126953125,0.13552666082084178,-0.7070943763881922,1.440876414824277
1684099578098031900,0.536031982421875,0.1630724010027945,-0.8921972612828015,2.1782469792716204
1684099578108049700,0.546049560546875,0.3636298985302448,-0.49744215664863584,2.1265845965735615
1684099578118067700,0.556067626953125,1.5300671486668287,-0.22603110761046408,1.839917672345042
1684099578128086800,0.566086669921875,3.6895442532777785,-0.286640182352066,1.6726257539510725
1684099578138104600,0.5761044921875,5.579685215428471,0.4636006773233413,0.039674131001532074
1684099578148123600,0.58612353515625,5.97887391859591,1.4401678281635044,-0.7633578231409192
1684099578158141700,0.5961416015625,5.12774048910737,1.3612386683553457,0.5342451161280274
1684099578168159700,0.60615966796875,4.26234063385725,2.29224175337255,2.033548439349234
1684099578178178800,0.6161787109375,3.353226724565029,3.807500770616531,3.3883974066674707
1684099578188196600,0.626196533203125,-0.23941198270916939,2.480875150480866,6.151219613248109
1684099578198215700,0.636215576171875,-4.7307335138931865,1.1341074905484914,7.639324666106701
1684099578208233700,0.646233642578125,-8.229417049401999,1.577731547769904,4.935044664865732
1684099578218252500,0.65625244140625,-9.49239583453536,2.0937194149345157,1.3454028013199566
1684099578228270800,0.666270751953125,-7.558575305134058,3.261313580021262,-2.669549171860516
1684099578238288600,0.67628857421875,-4.080083493782579,4.829250294485688,-7.2386454321205616
1684099578248307700,0.6863076171875,-0.07716901826784014,6.003810791453719,-11.14827620539069
1684099578258325800,0.69632568359375,2.9701345851957797,6.6350394872575995,-12.93265786847472
1684099578268344600,0.706344482421875,2.7390625608086583,6.983912546160817,-13.435725463789701
1684099578278362600,0.716362548828125,-0.41098143229186535,7.365438751387596,-13.254557580256462
1684099578288380700,0.726380615234375,-2.305436165988445,6.729452631923556,-12.166781048250197
1684099578298399700,0.736399658203125,-2.3267428656503557,4.287649847158789,-8.953024169173837
1684099578308417800,0.746417724609375,-1.2215149942360817,0.5994640227526425,-5.918350184050202
1684099578318436600,0.7564365234375,1.4119079483628272,-1.8454209459364412,-4.243067778110504
1684099578328454700,0.76645458984375,2.88801802752316,-2.3884113863170144,-2.9190356815993783
1684099578338473000,0.776472900390625,1.4366799860477446,-2.807480847996473,-1.6085229918748138
1684099578348491800,0.78649169921875,-1.83132403152287,-3.779497495925426,1.4648685541778803
1684099578358509800,0.796509765625,-4.38902990822792,-5.365047023969888,5.7399032499134535
1684099578368529000,0.80652880859375,-3.9510844811648127,-8.720843891283868,17.46615236173868
1684099578378546700,0.816546630859375,0.9081138654042035,-13.30508365240097,28.69550292227268
1684099578388565800,0.826565673828125,8.850335363593697,-8.659751416939496,15.283170024508237
1684099578398583600,0.83658349609375,10.808244624590873,-2.037354845894873,10.11472810717821
1684099578408601900,0.846601806640625,9.064871848243474,-0.7272673958450555,7.047822416013479
1684099578418621000,0.856620849609375,5.30851615845263,-1.2865420315504073,5.242192797717451
1684099578428638700,0.866638671875,2.63374282220304,-0.9756699097394943,4.748898408398032
1684099578438657800,0.87665771484375,0.9754683958180248,-1.220278876569867,4.767986555227637
1684099578448675600,0.886675537109375,-2.377967733713984,-2.0238795705109833,4.357780783483386
1684099578458693600,0.896693603515625,-5.884830776286125,-1.977825675344467,2.224142615136504
1684099578468712700,0.906712646484375,-6.828000684437155,-0.7404255681037902,-0.8143114730477332
1684099578478730800,0.916730712890625,-5.711233035746217,0.4090302982240915,-3.5327281361907716
1684099578488749800,0.926749755859375,-3.8176013088703153,0.8063146290749311,-5.405214199185371
1684099578498768400,0.936768310546875,-2.188508407175541,1.2007102527469395,-7.053430903545022
1684099578508787500,0.946787353515625,-3.177151195734739,2.384199321579933,-7.603221671590209
1684099578518805200,0.95680517578125,-4.239908437296748,2.054481045001745,-7.3342925024956465
1684099578528823300,0.9668232421875,-4.273255995625258,1.1444634648680687,-5.4616725839883085
1684099578538842000,0.976842041015625,-3.3699148245155808,0.32014088541567326,-2.831840213227272
1684099578548860400,0.9868603515625,-2.0749439873158932,-0.3918944545060396,-0.7825532297372818
1684099578558879500,0.99687939453125,-1.6177496699035168,-0.09228373142182826,0.07591770303249358
1684099578568897300,1.006897216796875,-0.1822352387701161,0.8048363732159137,-0.50858723551929
1684099578578915300,1.016915283203125,1.211052783063054,1.5945342140108345,-0.8837263700574636
1684099578588934400,1.026934326171875,-0.6627531303584575,-0.31959757231920954,-4.278654639798402
1684099578598952200,1.0369521484375,-1.7341911065042017,-0.6428136273965239,-1.914728875440359
1684099578608971300,1.04697119140625,0.3696165717244148,2.0400877779901028,6.5544648983299725
1684099578618989300,1.0569892578125,1.7810194931745529,-1.9145526420906185,4.243641778606176
1684099578629007400,1.06700732421875,1.8536812631510198,-0.7894771837815642,4.10032811717093
1684099578639026400,1.0770263671875,2.9465690006911753,0.08348901506960392,2.948852727714181
1684099578649044200,1.087044189453125,2.925389434540272,-0.6333399888694285,3.8949651190578933
1684099578659063300,1.097063232421875,-0.056899625764414666,-1.1609788386002182,6.040778293845057
1684099578669081000,1.1070810546875,-4.356317725193501,-2.2928239371746777,6.036584933808445
1684099578679100200,1.11710009765625,-5.71081627163887,-2.2626213988736272,5.5995449311524625
1684099578689118500,1.127118408203125,-3.234188841730356,-0.14586948339790104,3.0799428673923015
1684099578699136300,1.13713623046875,-0.7316857968091964,6.977942239579558,0.159558693793416
1684099578709155300,1.1471552734375,1.6643138526797294,4.549507470431924,4.72568295250535
1684099578719173400,1.15717333984375,13.111964634311198,-2.7385528577208516,2.9502111565858122
1684099578729192200,1.167192138671875,16.112651009637116,-0.38446605807095763,7.650787140363454
1684099578739210200,1.177210205078125,9.795365220397711,1.9560045964196324,2.708618907228112
1684099578749228300,1.187228271484375,0.8151568378306925,5.946323648124933,-2.8724592238634825
1684099578759247400,1.197247314453125,-5.134886853730678,5.401842092403769,-5.775231168404221
1684099578769265400,1.207265380859375,-6.125716923201084,3.474880927377939,-5.515038847994804
1684099578779284200,1.2172841796875,-2.8692963759183883,2.0170868416309355,-2.710564196076989
1684099578789302300,1.22730224609375,1.5775333948493002,1.3061615087777376,-0.74794193508327
1684099578799321300,1.2373212890625,3.5829333058178423,2.100925400790572,-0.7045651501715183
1684099578809339400,1.24733935546875,1.216581629487127,3.600115911287069,-2.4792571938902137
1684099578819357400,1.257357421875,-2.9474411073505875,3.7350808465719223,-3.208856247553229
1684099578829376300,1.267376220703125,-4.294260205209255,3.043744011285901,-2.164215677440166
1684099578839394300,1.277394287109375,-3.456553828048706,3.0756717659443615,-0.36556758859455585
1684099578849413400,1.287413330078125,-3.5076445483386514,2.3874492632865905,-0.026804420295357703
1684099578859431200,1.29743115234375,-3.8365456633150576,0.9704273329108953,0.14939210456609725
1684099578869449500,1.307449462890625,-3.1652292872726915,0.27461364447176456,0.6913292365014553
1684099578879468300,1.31746826171875,-1.9906781426548956,-0.01582826825082302,-0.4713572827994823
1684099578889486300,1.327486328125,-0.5997265461463481,-0.1328384446501732,-2.6976439242273567
1684099578899505400,1.33750537109375,0.6464684235770255,-0.3575087853014469,-3.611448037162423
1684099578909523200,1.347523193359375,1.0541348130367696,-0.3570481820523739,-3.387253497329354
1684099578919541200,1.357541259765625,0.02737425607256591,-0.2878951508492231,-3.067649787530303
1684099578929560300,1.367560302734375,-0.888799289407581,-0.12141513336002827,-2.6256740820378064
1684099578939578400,1.377578369140625,-0.3688905955374241,0.21895254752635954,-2.5089158345729112
1684099578949597400,1.387597412109375,1.0494048619054257,0.08686813611388206,-1.8976234268605707
1684099578959615200,1.397615234375,3.6444647561013697,-0.7057873854428529,-0.0996674119323492
1684099578969634300,1.40763427734375,5.160748440217971,-3.2578695770472286,1.8417080628931521
1684099578979652400,1.41765234375,5.21392356556654,-4.464691590672731,1.187223579186201
1684099578989670400,1.42767041015625,4.630968194544315,-3.086189068305492,-0.8962281242340803
1684099578999689200,1.437689208984375,1.982518217074871,0.29601474441885944,-2.5601947709113357
1684099579009707300,1.447707275390625,-2.7241011385202407,1.2046014149665831,-3.4641841767966746
1684099579019726300,1.457726318359375,-6.912350115728378,0.2263444113433361,-1.9803882193088531
1684099579029744400,1.467744384765625,-9.416066628092526,-0.25341362005472184,-0.6521195081412792
1684099579039762200,1.47776220703125,-10.989311970359086,-0.18953589890599248,-0.4834668227881193
1684099579049781200,1.48778125,-10.084836826783418,-0.3570025893449783,-0.8641665140628814
1684099579059799600,1.497799560546875,-6.613223376768827,-0.9258435102969408,-0.435663453605771
1684099579069818400,1.507818359375,-4.432627057892084,-1.779558772972226,2.176333985257149
1684099579079836400,1.51783642578125,-4.339024060565233,-1.079942769640684,3.999522056597471
1684099579089855500,1.52785546875,-2.03121955801025,-1.986803931570053,4.563983155030012
1684099579099873300,1.537873291015625,1.0585654889605938,-1.3867384357929229,4.377103323590755
1684099579109891300,1.547891357421875,2.5358137783706187,-0.03671966511011123,1.7172107456088066
1684099579119910100,1.55791015625,4.3800352853894235,-0.3454080131411552,-0.577720977500081
1684099579129928400,1.567928466796875,7.767857522517442,-0.9613853637993335,-2.7756290811836717
1684099579139947500,1.577947509765625,12.462627450364828,-0.6265887610435485,-3.7218537007302044
1684099579149965300,1.58796533203125,14.198670322215555,0.124371645078063,-4.076299591329693
1684099579159983400,1.5979833984375,9.368155706882476,1.3778607173323631,-2.292302543649077
1684099579170002200,1.608002197265625,3.197893831773102,2.222979416576028,0.005537760382890701
1684099579180020200,1.618020263671875,0.5047029414318501,1.823753888529539,1.1558137109220028
1684099579190039300,1.628039306640625,1.220046675249189,1.8477280538350342,1.798936258137226
1684099579200057300,1.638057373046875,3.2217432016551495,1.6448691474974155,2.1850538828074932
1684099579210075400,1.648075439453125,4.812916999322176,1.2416244469374418,2.3226555963367224
1684099579220094200,1.65809423828125,5.2366825098633765,1.9119465512454508,2.8924516260564324
1684099579230112300,1.6681123046875,4.520054289193451,1.5959423272430895,3.1324411163926125
1684099579240131300,1.67813134765625,2.208075861954689,1.393666773751378,2.7957366341888905
1684099579250149400,1.6881494140625,-1.3136942423701286,1.7250351556241512,3.724353116330504
1684099579260168200,1.698168212890625,-4.510636180245876,1.2265408595740794,5.83138969347775
1684099579270186500,1.7081865234375,-5.21246810606122,0.9698001409232616,5.240288425400853
1684099579280204300,1.718204345703125,-3.6268519425213337,1.3010054411888121,3.459088314962387
1684099579290223400,1.728223388671875,-1.734829258277267,1.8512480446547268,1.3448515971779822
1684099579300241200,1.7382412109375,-1.423667359739542,2.6542268073052164,-0.5134978039145469
1684099579310260200,1.74826025390625,-2.1053777040243147,2.736506446585059,-2.019277045151591
1684099579320278500,1.758278564453125,-2.9468635997235775,2.6484792035639284,-3.1402497443169355
1684099579330296300,1.76829638671875,-3.9545243924856184,2.291171493792534,-3.844053262466192
1684099579340315400,1.7783154296875,-4.216562048500776,1.7768746484547853,-4.735324348814785
1684099579350333200,1.788333251953125,-2.088808846539259,1.25455231757164,-5.536580817717313
1684099579360352300,1.798352294921875,0.4279528792284429,1.0008575424879789,-4.5780943902298805
1684099579370370300,1.808370361328125,0.2841488039277494,0.6321119083791971,-2.489263916380703
1684099579380388400,1.818388427734375,-0.951799350938946,-0.3711339905500412,0.27920009547919034
1684099579390407400,1.828407470703125,-1.522269334397465,-0.6049298869431019,3.0461554563418027
1684099579400425200,1.83842529296875,-2.37631645937562,-0.4404594557106495,2.337851704163849
1684099579410444300,1.8484443359375,-1.3302233523666858,0.599181698679924,-0.17759908513575792
1684099579420462300,1.85846240234375,0.5157997972466051,1.120512095916271,-1.5543828208863735
1684099579430480100,1.868480224609375,1.3370330323815345,0.5975134732067585,2.5348425952509044
1684099579440499200,1.878499267578125,1.200529489352554,0.2987327712059021,4.347057729417085
1684099579450517500,1.888517578125,0.9263748406946658,0.7959756058901548,2.7396412374794483
1684099579460536300,1.898536376953125,1.4864742367863655,0.9264607654124498,0.7673726117402314
1684099579470554400,1.908554443359375,4.1664591702044005,0.7482920636951923,-3.960456120622158
1684099579480573400,1.918573486328125,14.30577226806283,1.857189709663391,-6.87646339431107
1684099579490591200,1.92859130859375,11.554497875934839,3.8647611194521185,-1.6267074678629636
1684099579500608800,1.93860888671875,6.151252346473932,2.446288990268111,4.595880514550209
1684099579510627800,1.9486279296875,2.854989618146419,0.20975041941702366,7.129191370189189
1684099579520645600,1.958645751953125,-2.7796207811683415,-0.7193728432029485,5.852416699415445
1684099579530664700,1.968664794921875,-11.007125859469175,-0.9380115024745463,2.276754845905304
1684099579540682800,1.978682861328125,-8.050076965817809,-0.8995160598635673,-1.3503794206887483
1684099579550700500,1.988700439453125,-2.6530788063138724,-0.5835346322149038,-2.8960853063836693
1684099579560719600,1.9987197265625,0.6005157237626612,-0.14656711027324199,-2.2074127218708393
1684099579570737700,2.008737548828125,0.9605936288997531,-0.017364391776919366,-1.8458058536008
1684099579580756700,2.0187568359375,-0.053338791477680204,0.14017887054085731,-2.4712968825355173
1684099579590774800,2.02877490234375,-1.4414898705475032,0.6318856984078883,-3.793246912075579
1684099579600793600,2.038793701171875,-2.320207034140825,1.341116502302885,-5.2410465502917765
1684099579610811600,2.048811767578125,-2.4828303762018678,2.1761288180738685,-6.299163857093453
1684099579620829700,2.05882958984375,-2.5706863543093204,2.277543365934491,-6.612228520512581
1684099579630848800,2.068848876953125,-2.603231071822345,1.9330922151267527,-6.645961278766393
1684099579640866800,2.07886669921875,-1.9343907305046915,1.3772680121362209,-6.4000225246369835
1684099579650885600,2.0888857421875,-0.9242083103105425,0.4586567911803722,-5.8046109921455376
1684099579660903700,2.098903564453125,-0.5195321156427264,-0.5404039310187101,-4.475579479911923
1684099579670921700,2.108921630859375,-0.8722896147638559,-1.3554372886002064,-2.5057319438397885
1684099579680940500,2.1189404296875,-1.6088336652591824,-1.97578744751513,0.076575290158391
1684099579690958800,2.128958740234375,-1.4799121017917989,-3.1122599136292934,2.5054782613396642
1684099579700978000,2.13897802734375,-0.1775301115527749,-3.666819795772433,4.341088007357716
1684099579710995700,2.14899560546875,1.5431430494695901,-3.6073978849887847,5.45961798954606
1684099579721013800,2.159013671875,2.5886422822386024,-3.2830420122265815,5.605967657676339
1684099579731032600,2.169032470703125,2.4160750537902116,-2.6561756032854316,5.2860506441444155
1684099579741050600,2.179050537109375,1.3362334064364432,-2.468255322882533,4.20586822052896
1684099579751069700,2.189069580078125,0.19508885685801505,-2.3578256939172744,2.656749603781104
1684099579761087700,2.199087646484375,0.03114449532628059,-1.5080278969466685,1.9218033438712356
1684099579771106800,2.20910693359375,0.2529828274220228,-0.23540391611158845,2.063771435916424
1684099579781124600,2.21912451171875,-0.08160100936591624,0.281084301790595,2.407687164673209
1684099579791142700,2.229142578125,-0.9233113614708185,-0.18184475988149643,3.314872736251354
1684099579801161700,2.23916162109375,-1.1099325419738888,-0.4672843342721462,3.871345758539438
1684099579811179500,2.249179443359375,-0.8180430607914924,-0.46518706973195073,3.5638913362175226
1684099579821198600,2.259198486328125,-0.35634734030663967,0.12395488097071647,2.2849504273205996
1684099579831216600,2.269216552734375,0.034794250005483626,0.6880085676461458,0.6990688908427953
1684099579841234700,2.279234619140625,0.350992243014276,0.5931020865052938,-0.2502104400992393
1684099579851253800,2.289253662109375,0.6871114726759493,1.1549258221715688,0.892660787141323
1684099579861271600,2.299271484375,0.6518845303416252,1.4143003964573144,2.404559388041496
1684099579871290600,2.30929052734375,0.3075567136526108,1.5571464403808115,2.2805565762758255
1684099579881308700,2.31930859375,-0.11067366685420274,1.895280663126707,-0.05292553450167179
1684099579891327700,2.32932763671875,0.09442205862477421,2.0833102491229774,-3.398109237864613
1684099579901345800,2.339345703125,1.1963136252231896,2.63286603936851,-5.044360779631138
1684099579911363600,2.349363525390625,2.2410808904558417,2.481629183718562,-4.910743751823902
1684099579921382700,2.359382568359375,2.6782652700185774,1.8464117105394602,-3.6540368865668773
1684099579931400700,2.369400634765625,2.4250612010613084,1.1546990276783704,-2.075229526259005
1684099579941419500,2.37941943359375,1.748478575053811,1.1326140371203421,-0.20345657996982336
1684099579951437800,2.389437744140625,0.6553361321002245,1.0323229403316974,0.9124506524994969
1684099579961455600,2.39945556640625,-0.32535423614978787,0.6645563803881407,1.6148501490697265
1684099579971474700,2.409474609375,-0.7937246120929717,0.6170020175307989,2.060238001093268
1684099579981492700,2.41949267578125,-0.8551485103487968,0.7533750660479068,1.9323536717191336
1684099579991511600,2.429511474609375,-1.0572685810178517,1.0552993267714976,1.7526549839556216
1684099580001529600,2.439529541015625,-1.1893661441728471,1.235191783541441,1.254949500195682
1684099580011548000,2.4495478515625,-1.0709548688039183,1.9387281751871108,0.5552490334510803
1684099580021566700,2.459566650390625,-0.9421145538792014,2.582762576550245,-0.5106532281383872
1684099580031584800,2.469584716796875,-1.3038859650611876,3.4864807642787694,-1.6490052243888378
1684099580041603800,2.479603759765625,-3.10905848723948,3.8227521157622335,-5.939557222729921
1684099580051621600,2.48962158203125,-5.399181933283805,5.033731833589076,-6.532219164252281
1684099580061640700,2.499640625,-4.347456081084907,5.740368529337644,-4.157021187512576
1684099580071658500,2.509658447265625,-2.4134531808540225,6.706532944107055,-1.7716674352005124
1684099580081676800,2.5196767578125,-0.05388765753209591,7.029378996828198,1.828328649099171
1684099580091695900,2.52969580078125,1.1756763492554425,5.10446424293816,6.020591830384731
1684099580101713700,2.539713623046875,-5.995978198131919,0.4754056814074516,7.010808736392855
1684099580111732700,2.549732666015625,-14.651090264832973,-3.5689211470782753,3.9735435657322404
1684099580121750500,2.55975048828125,-5.729417511734366,-3.724027537637949,5.581953744882345
1684099580131768600,2.5697685546875,1.7539032304510473,-4.736501283639669,7.923363726049661
1684099580141787600,2.57978759765625,9.138217654961347,-6.833598650574683,9.069033059576153
1684099580151805700,2.5898056640625,9.485278696006535,-7.715365118736028,7.5042030789554115
1684099580161824800,2.59982470703125,5.277104536622763,-5.8038189649850125,4.124896741238236
1684099580171842600,2.609842529296875,2.6811726818978783,-2.6297616436123845,0.3498210803430527
1684099580181861600,2.619861572265625,1.4423796589940785,-0.2654050866216421,-2.9401021427646277
1684099580191879700,2.629879638671875,0.9800915255740285,0.974644658344984,-5.532233728423714
1684099580201897700,2.639897705078125,1.6334961050897836,1.2611644291877746,-8.431744040820002
1684099580211916800,2.649916748046875,1.399770935845375,0.9338689958423375,-10.300269383490084
1684099580221934800,2.659934814453125,0.0017456746235489844,1.0498591815441847,-8.154336381715536
1684099580231953700,2.66995361328125,-1.0943933197975158,0.9016723611146211,-5.05023113296926
1684099580241971700,2.6799716796875,-1.241402328619361,0.2559370010524988,-1.6720972000323235
1684099580251989500,2.689989501953125,-1.0970409116968511,-0.37542788835167884,0.10614519311171025
1684099580262008600,2.700008544921875,-0.4869388828128576,-0.842134130474925,0.6721656132828444
1684099580272027000,2.71002685546875,0.6570803454190492,-0.8014870627880096,1.0849209964446722
1684099580282045700,2.720045654296875,1.06152390037477,-1.0265081165730952,0.9801840261630713
1684099580292063700,2.730063720703125,0.16544044530838728,-1.1330039132207632,0.49969037396684285
1684099580302082800,2.740082763671875,-0.8835869615867733,-1.0829869596421717,0.340105047894828
1684099580312100600,2.7501005859375,-1.5232687206983566,-1.1053279707878827,0.327795163028501
1684099580322118700,2.76011865234375,-1.334816525375843,-0.757128865623474,0.13335150873884558
1684099580332137500,2.770137451171875,-0.40329789205193517,0.21322306396365165,-0.44449890382718293
1684099580342155800,2.78015576171875,1.1131389367997646,0.6497258910030126,-1.277340780223906
1684099580352174800,2.7901748046875,2.245758234617114,0.8267308096379041,-1.418341634672135
1684099580362192600,2.800192626953125,3.129561761564016,0.9088988052368163,-1.1339778728194534
1684099580372210700,2.810210693359375,3.6640532536685466,0.4586696506619453,-0.29947843847405164
1684099580382229800,2.820229736328125,4.266157561796903,-0.10254092154204845,0.46951461407486345
1684099580392247600,2.83024755859375,4.100987457862496,-0.10345862090885638,0.3959344871444627
1684099580402266600,2.8402666015625,3.1345448106735945,-0.05121931510567665,0.16589889313299208
1684099580412284700,2.85028466796875,1.5148422531366348,-0.01783259381055832,0.05171531846169382
1684099580422302700,2.860302734375,-0.3699000648409128,0.02206979298889637,0.23719953082408754
1684099580432321800,2.87032177734375,-0.08746668652892112,-0.19735095657110213,0.7912552993699907
1684099580442339600,2.880339599609375,2.044388105532527,-0.11622282541394233,1.1668343596953898
1684099580452358700,2.890358642578125,3.7148651570171114,0.33068098413050173,1.0366956024579703
1684099580462376700,2.900376708984375,3.1646219690293074,0.5095470204621553,2.1522920154124496
1684099580472395800,2.910395751953125,1.5322972458064554,-0.044942719054222105,4.388093211899697
1684099580482413800,2.920413818359375,-0.6055266837924719,-0.53029579398036,6.640379679241776
1684099580492431600,2.930431640625,-2.2783593584924935,-0.5942097554862499,7.825162879538536
1684099580502451500,2.940451416015625,-2.307540444791317,-0.2831938412904739,5.715978768968582
1684099580512469200,2.95046923828125,-1.117241111421585,0.23893910450041292,2.0772681924797594
1684099580522488300,2.96048828125,0.07784779431223869,0.5795248120516538,-1.0246679685991258
1684099580532506000,2.970506103515625,-0.6215063432127237,0.7731202154815197,-3.0589450875490902
1684099580542525200,2.980525146484375,-2.703506678780913,0.8944996930062771,-1.7355841682977973
1684099580552543500,2.99054345703125,-2.577675482544303,0.6279986278414725,1.0900845166876911
1684099580562561300,3.000561279296875,-0.16661445752382278,0.4594727837383747,4.374807906129956
1684099580572580400,3.010580322265625,2.704656433337927,0.7967986127108335,6.142483349084854
1684099580582598100,3.02059814453125,3.1815801180928944,1.3700783928930758,4.894710316389799
1684099580592617200,3.0306171875,1.0830699617505073,0.37235505677759645,1.875133801024407
1684099580602635300,3.04063525390625,-4.009429702627658,-0.2237865435540676,-1.8513317774154245
1684099580612653300,3.0506533203125,-8.755376275482773,1.2705378222107886,-4.131589224614203
1684099580622672400,3.06067236328125,-6.978038685691356,1.526746041420102,-4.543517874628305
1684099580632690400,3.0706904296875,-3.5062434493690726,0.5155781173199415,-3.9289790323406457
1684099580642709200,3.080709228515625,-1.9003753559172152,0.0673339990824461,-1.6886431150332093
1684099580652727300,3.090727294921875,-1.1757973452866077,0.2387269230544567,0.15602759705781935
1684099580662745300,3.100745361328125,-0.6083861648768186,0.527654924082756,0.9217822522073984
1684099580672764400,3.110764404296875,-0.030378771650791166,0.9358797511428594,-0.1505333835557103
1684099580682782500,3.120782470703125,0.6913181305855512,1.3178887714505194,-1.632790002647042
1684099580692801300,3.13080126953125,0.2882961328655481,1.9965660316497087,-1.9060192070230841
1684099580702819300,3.1408193359375,-0.4114011190086603,2.2413486014813184,-2.087105842013657
1684099580712838400,3.15083837890625,-1.1041676948368548,2.4911206501632925,-2.925330690090358
1684099580722856200,3.160856201171875,-1.0190595541328191,2.839087115615606,-3.4452824924498793
1684099580732874500,3.17087451171875,-0.6424930171400308,3.0443484069198368,-2.850843896643817
1684099580742893300,3.180893310546875,-0.5329559531003236,3.028672114360332,-1.3896306501030922
1684099580752911400,3.190911376953125,-0.5496890612363815,2.5672341680288313,0.20956834084838627
1684099580762930400,3.200930419921875,-0.4782604863166809,1.7898861057192086,1.771979569889605
1684099580772948200,3.2109482421875,-0.05024783972501754,1.3414905963122843,1.9249992173030972
1684099580782967300,3.22096728515625,0.06742927615046501,0.9336603215277195,1.038774600689113
1684099580792985000,3.230985107421875,-0.15509060846865177,0.8462251991808414,-0.14843465771079062
1684099580803003400,3.24100341796875,-0.41322365826070306,0.542720391267538,-0.8953525104433298
1684099580813022500,3.2510224609375,-0.45901627214252944,0.4580068028390407,-0.5888248475775122
1684099580823040300,3.261040283203125,-0.6710913351148367,0.5572054282158613,0.03306932590901852
1684099580833059300,3.271059326171875,-0.6000836159557104,0.2673106279820204,0.7282184129595756
1684099580843077400,3.281077392578125,-0.7454232302606105,-0.3605567746952176,1.4188064757049084
1684099580853095200,3.29109521484375,-1.2194950327157974,-0.9614011458903551,2.8541943761155006
1684099580863114200,3.3011142578125,-1.2852654357433317,-1.028648051211238,4.094169302280247
1684099580873132300,3.31113232421875,-1.1589397339880465,-0.6439443849921226,3.8021322293207045
1684099580883151400,3.3211513671875,-0.9287766411393881,0.6688520317554474,2.8287843327879902
1684099580893169400,3.33116943359375,-0.9516904837369918,1.7505027743577957,1.8290607627660036
1684099580903188200,3.341188232421875,-1.155460659700632,2.0353733166888355,0.42851650446057316
1684099580913206300,3.351206298828125,-0.6219990951657295,1.1206593954324722,-0.26278116785883904
1684099580923224300,3.361224365234375,0.038377953711152074,0.2663894214838743,0.046203532770276064
1684099580933243400,3.371243408203125,1.0698761336565017,-1.1022656606078147,1.290761110550165
1684099580943261400,3.381261474609375,1.606909711459279,-2.9343825960740446,2.234297513926029
1684099580953280300,3.3912802734375,2.051169143974781,-4.333154584009945,0.9477513907223939
1684099580963298300,3.40129833984375,2.275021738502383,-5.370125350147485,-0.3875637318253517
1684099580973317400,3.4113173828125,2.0340122574687003,-5.783695629888773,-0.41437575090527534
1684099580983335200,3.421335205078125,1.6555764194726943,-5.477715956294536,-0.5785667806744575
1684099580993353500,3.431353515625,0.7671791349947452,-4.439404881463945,-0.4854267246842384
1684099581003372500,3.44137255859375,-0.16200491790175436,-2.527126321785152,-0.7020499524801969
1684099581013390300,3.451390380859375,-0.8617723124027251,-0.2319011686876416,-1.3721400015980005
1684099581023409400,3.461409423828125,-0.8010136000573634,0.831673234476149,-1.799589169088006
1684099581033427200,3.47142724609375,-0.6233271288990974,1.8522011075958609,-0.7799503537625074
1684099581043445200,3.4814453125,-0.5131617038279771,2.92495367347151,0.9247066152215003
1684099581053464300,3.49146435546875,-0.419208577889204,2.07837191593796,1.0426999574393034
1684099581063482400,3.501482421875,-0.3208475723803043,0.7209484219565987,0.9156763365477323
1684099581073501400,3.51150146484375,-0.17786884198784828,0.04223930531442165,1.0876327396214007
1684099581083519200,3.521519287109375,0.019848609808087347,-0.5137786666825414,0.6972481051564217
1684099581093538300,3.531538330078125,0.1838403176128864,-0.49646454378813504,0.33315468076765536
1684099581103556400,3.541556396484375,0.22279811703860758,-0.12264789002537727,0.16031389607489108
1684099581113574100,3.55157421875,-0.0032417584002017974,0.20526012226045132,0.2444599137485027
1684099581123593200,3.56159326171875,-0.14784779773354528,0.39534576400369403,0.38986967068016526
1684099581133611300,3.571611328125,-0.20589082137942313,0.48194765039682386,0.44838148088157176
1684099581143630300,3.58163037109375,-0.25412206058502196,0.6065495970994234,0.7179699906677007
1684099581153648400,3.5916484375,-0.24456688125431536,1.111547283694148,1.04845048379004
1684099581163666200,3.601666259765625,0.06366203257143498,-0.06797492733448743,0.16682137827277183
1684099581173685200,3.611685302734375,0.26285306405127046,-0.384178181040287,0.30571839230954645
1684099581183703300,3.621703369140625,0.317619842505455,-0.20193331592530012,0.32099954807162284
1684099581193722400,3.631722412109375,0.3017939123421907,0.24536592267751692,0.051205871102213855
1684099581203740400,3.641740478515625,0.23561668207943437,0.43786242495477196,-0.20920096884071826
1684099581213759500,3.651759521484375,0.14234335509836674,0.4858282912224531,-0.49224400348365305
1684099581223777300,3.66177734375,0.05651332986056804,0.37562925614267584,-0.6938081938356161
1684099581233795300,3.67179541015625,-0.0015372925698757171,0.3819742412552237,-0.8631313257962465
1684099581243814100,3.681814208984375,0.032115970706939695,0.22640870875120161,-0.8421335459530354
1684099581253832400,3.69183251953125,-0.0268698867470026,-0.4066270364746451,-0.315974997907877
1684099581263851500,3.7018515625,-0.09779986449480056,-1.6956395497918129,0.45234103216230864
1684099581273869300,3.711869384765625,-0.11113748497366904,-2.3725386944025755,0.638451048272848
1684099581283887400,3.721887451171875,-0.07399696410298347,-1.7375281419724224,-0.10016250197291374
1684099581293906200,3.73190625,0.005706102687120437,-0.4582008641064167,-0.9045172291517257
1684099581303924200,3.74192431640625,0.10831073711514472,0.3969216350182891,-0.8103338015884161
1684099581313943300,3.751943359375,-0.008925649255514144,0.6526619444549083,-0.2749474064707756
1684099581323961300,3.76196142578125,-0.2591173846542835,0.5780176223590969,0.0528986464947462
1684099581333980400,3.77198046875,-0.4130015399426222,0.3058835197433829,0.18921032021343706
1684099581343998500,3.78199853515625,-0.3653945701152086,0.06769084969609976,0.28717618892490865
1684099581354016300,3.792016357421875,-0.11192483595907687,-0.10938216573894023,0.28790099606812
1684099581364035300,3.802035400390625,0.03210778740048408,-0.07697890252321958,0.0967652607500553
1684099581374053000,3.81205322265625,0.119627080899477,0.01919920598864555,-0.052561961886286736
1684099581384072200,3.822072265625,0.11014905845820903,0.16404489929676055,-0.08649579567015171
1684099581394090500,3.832090576171875,0.027091420543193814,0.3106821521967649,-0.06150631584227085
1684099581404109300,3.842109375,0.03323357656002045,0.28592122042775153,-0.005504442635178566
1684099581414127400,3.85212744140625,0.04814063831269741,0.1628887149989605,0.11566577605307102
1684099581424145200,3.862145263671875,0.06311901173591614,0.06598930647522211,0.23804887766242025
1684099581434164200,3.872164306640625,0.05348842908143997,-0.07318944711238146,0.3160381262719631
1684099581444182300,3.882182373046875,0.003510638469457626,-0.22444091580957173,0.24060148475468157
1684099581454201300,3.892201416015625,0.01269815353155136,-0.24142419931441544,0.04027706533074379
1684099581464219400,3.902219482421875,0.05359364302158355,-0.19297990188002584,-0.01229424890577793
1684099581474237200,3.9122373046875,0.07294657826721668,-0.16422873143106698,0.06527005228996277
1684099581484256300,3.92225634765625,0.09533493568599223,-0.11549363435655832,0.17248481086194514
1684099581494274300,3.9322744140625,0.06963233915269375,-0.08627747674435376,0.008092121040821075
1684099581504292600,3.942292724609375,0.02062368583381176,-0.17888941720724105,-0.4469190071135759
1684099581514311000,3.952310791015625,0.034012159717082976,0.15365443818569183,-0.30817221520245075
1684099581524329700,3.962329833984375,0.02759060223698616,0.3027192104935646,-0.07044833171069621
1684099581534347800,3.97234765625,-0.020189386069774627,0.21636223877221344,0.06115852531790733
1684099581544365600,3.982365478515625,-0.050125674650073046,-0.01004997711032629,0.21664719319343564
1684099581554384600,3.992384521484375,-0.16614976262152195,-0.15254355433434247,0.1389426067441702
1684099581564403000,4.00240283203125,-0.18066811731755733,-0.22246464730054138,-0.15671616384387016
1684099581574421800,4.012421875,-0.1979278796762228,-0.1231909108608961,-0.3861772459030151
1684099581584439800,4.022439697265625,-0.15603578036427496,-0.02488222006112337,-0.4942231946021318
1684099581594459000,4.032458984375,-0.11209726991653442,0.08915069409310818,-0.23865853399336337
1684099581604476700,4.0424765625,0.022233459118008614,0.12929185808449983,0.24175766905248164
1684099581614494700,4.05249462890625,0.3585188391268253,0.062437751473486416,0.7580249376803636
1684099581624513500,4.062513427734375,0.5325631543904542,-0.13483867855668066,0.6340981137603521
1684099581634531800,4.07253173828125,0.2929132712721825,-0.30013270113170143,0.025664018088579175
1684099581644551000,4.082551025390625,-0.08586977272629738,-0.2824640657112002,-0.34146365942955015
1684099581654568700,4.092568603515625,-0.34493279684484,-0.046832478323578834,-0.37582244062721726
1684099581664586800,4.102586669921875,-0.3919499840855598,0.2177788275718689,-0.1394733526200056
1684099581674605800,4.112605712890625,-0.35446225721240043,0.3535284834936261,0.17012568051517007
1684099581684623600,4.12262353515625,-0.28870003749132156,0.11444383304268121,0.38420273095965385
1684099581694642700,4.132642578125,-0.04946282682716846,-1.3796405864864587,0.0357277314633131
1684099581704660700,4.14266064453125,0.24076807349324225,-3.108056032198667,-0.8134434580415487
1684099581714679800,4.1526796875,0.5336123711824416,-2.007356013472378,-1.163361057561636
1684099581724697900,4.16269775390625,0.5258218634366989,0.17200228804200887,-0.8580717043191194
1684099581734715600,4.172715576171875,0.2876256862580776,1.2073144733175634,-0.13501286607980728
1684099581744734700,4.182734619140625,0.16262100397348403,1.127793485096097,0.727624538719654
1684099581754752500,4.19275244140625,0.017541501909494397,0.8545850312471389,1.0777174948066472
1684099581764771600,4.202771484375,-0.25489713661074637,0.9876540697827935,0.8106266470551491
1684099581774790000,4.212789794921875,-0.5008569335281848,1.224820319391787,0.2867752069085836
1684099581784807700,4.2228076171875,-0.5875608189910649,0.9086568131744861,-0.14001929606497288
1684099581794826800,4.23282666015625,-0.5050397721707821,0.2154302186191082,-0.35951778703629966
1684099581804844500,4.242844482421875,-0.34294483789801594,-0.11299480327814816,-0.25980770500600336
1684099581814863600,4.252863525390625,-0.152701082983613,0.11372165624797344,-0.028436405411362647
1684099581824882000,4.2628818359375,-0.026870471268892287,0.6739756583794951,0.20605565655231475
1684099581834900700,4.272900634765625,0.18647358872592448,1.4537527014017104,0.5095873524725437
1684099581844918800,4.282918701171875,0.2079348944276571,-0.3043193391665816,1.0360393305063247
1684099581854936800,4.292936767578125,0.049911155116558074,-0.8582567054972052,-0.7843734309017658
1684099581864955600,4.30295556640625,0.08812193556725978,-0.4627916990280151,-0.9522785127580166
1684099581874973700,4.3129736328125,-0.19718729044198988,-0.6549924332290887,0.3312538155823946
1684099581884992800,4.32299267578125,-0.16244272479712962,-0.6445736228063702,0.5237801284760236
1684099581895010800,4.3330107421875,-0.07005728656649589,-0.251751532061398,-0.4559434405684471
1684099581905030000,4.34302978515625,-0.06120879420042038,-0.050749067245423794,-0.7511047830283641
1684099581915047700,4.353047607421875,0.02516366735100746,-0.548572916688025,-0.12108546301424503
1684099581925065700,4.363065673828125,0.20929975304007528,-2.0281351821288465,0.24811551364660261
1684099581935084800,4.373084716796875,0.22883681268095968,-2.01993170966804,-0.46396249637305736
1684099581945102600,4.3831025390625,0.016399346137046814,-1.0852297701328992,-0.5529553695559501
1684099581955121700,4.39312158203125,-0.34685938099324704,-0.5919198909834027,0.19984628051817416
1684099581965139700,4.4031396484375,-0.26257950780689715,0.2113116773843765,0.719200409245491
1684099581975157800,4.41315771484375,-0.21853461437523364,0.9644418287605047,1.0708481935590506
1684099581985176800,4.4231767578125,-0.2666349206775427,0.9377487598851323,1.0543792893171309
1684099581995194600,4.433194580078125,-0.2972854950070381,-0.2179395710915327,0.6520598869085311
1684099582005213700,4.443213623046875,-0.3657791855186224,-0.7255503627941012,0.07183715572059154
1684099582015231700,4.453231689453125,-0.32664895213544365,-0.3018126170426607,-0.18434300643801688
1684099582025250600,4.46325048828125,-0.21717034028470514,-0.4180290127158165,0.041353754651546476
1684099582035268900,4.473268798828125,0.30835107890069485,-0.2014735894590616,0.027505262041091917
1684099582045286700,4.48328662109375,0.5878291145384311,0.20161679732203483,-0.14462532855570315
1684099582055305700,4.4933056640625,0.58574237139225,0.333862244515121,-0.10322247406542301
1684099582065323800,4.50332373046875,0.35069209102392196,-0.4059080745503306,0.3392471524238586
1684099582075342600,4.513342529296875,0.13263444651067255,-1.335648300024867,0.7567793215334415
1684099582085360600,4.523360595703125,-0.3427729884624481,-1.501669467830658,0.8884101439595222
1684099582095378700,4.533378662109375,-0.7940870156645774,-1.7210545615553854,0.9674515319705009
1684099582105397800,4.543397705078125,-0.777364428922534,-1.7108841729357838,0.9596844051003456
1684099582115415800,4.553415771484375,-0.5817313821852207,-1.7414432695895432,1.0763824468106031
1684099582125434600,4.5634345703125,-0.43483577060997486,-1.2200988438278435,0.8879635692358017
1684099582135452700,4.57345263671875,-0.4116249908924103,-0.7832341977387666,0.7720619386002421
1684099582145471700,4.5834716796875,-0.05812661027610302,-0.4303665162414312,0.7421373404577374
1684099582155489800,4.59348974609375,0.10851824238598345,-0.03385784593820572,0.8729214829266071
1684099582165507800,4.6035078125,0.13710194731354713,0.16020751309096812,1.0426569950804114
1684099582175526700,4.613526611328125,0.1265980889558792,-0.429108040612936,0.4303025110945105
1684099582185544700,4.623544677734375,0.06061258187294006,-1.106293600949645,-1.087546814903617
1684099582195563800,4.633563720703125,-0.39315059204697606,-0.5602876121401786,-0.9422902027070522
1684099582205581600,4.64358154296875,-0.5137462257176637,0.12389467521607875,0.8404960078790783
1684099582215600600,4.6536005859375,0.046585225564241405,0.4009183034390211,2.0742340854808687
1684099582225619000,4.663618896484375,0.662509969252348,1.1350409720063208,2.482703242690861
1684099582235636700,4.67363671875,1.45539462338984,1.523138956838846,2.9346088060453535
1684099582245655800,4.68365576171875,2.222253440389037,0.7324205408245325,2.124329364992678
1684099582255673600,4.693673583984375,2.1001187605828044,-1.486723243111372,-1.0948565533950925
1684099582265692700,4.703692626953125,0.81776775098145,-1.8792296920359133,-1.5594111704424023
1684099582275710700,4.713710693359375,-0.8302291731476783,-1.7736591935396193,-1.0832733753681183
1684099582285728800,4.723728759765625,-2.220122858101129,-3.1871371676981446,-1.1493760790899394
1684099582295747800,4.733747802734375,-2.0832722552001477,-5.24721267170608,-0.3109019324272871
1684099582305765600,4.743765625,-1.5108230806231497,-5.194106519940495,0.5724164413511753
1684099582315784700,4.75378466796875,-0.6762053171277046,-3.3558594111561773,1.6874676415130494
1684099582325802800,4.763802734375,0.357892816182971,-0.9972568876475095,2.3214918132543563
1684099582335821600,4.773821533203125,1.1055711318939923,0.6358224533349275,2.591175600108504
1684099582345839600,4.783839599609375,0.9898498262614012,1.034606667354703,2.6586551451414824
1684099582355858000,4.79385791015625,1.0191413871973753,1.5059931762486696,2.5298575003147126
1684099582365876700,4.803876708984375,1.8505793516129254,3.1241040806800124,2.0051658099517224
1684099582375894800,4.813894775390625,2.408237199771404,7.1571005368560545,0.8894283810913562
1684099582385913900,4.823913818359375,-0.7483435016214847,10.19975499933958,-1.1982312954127787
1684099582395931600,4.833931640625,-4.66960099979937,7.854912121114134,-5.168007617565989
1684099582405950000,4.843949951171875,-5.342165914598107,2.0314888764709234,-8.106145474520325
1684099582415968800,4.85396875,-3.2123119409650562,-0.3684937051743269,-6.9787319286525245
1684099582425986800,4.86398681640625,-0.40291210760474205,-0.5191483770221471,-3.0746421306356786
1684099582436006000,4.874005859375,1.5957552802383899,-0.3198053698509931,0.4958762225061655
1684099582446023700,4.884023681640625,2.448799511784315,-0.07631634696125984,1.9622832382977007
1684099582456042800,4.894042724609375,2.5378525907218457,0.20968144583404064,2.19202576764673
1684099582466060500,4.904060546875,2.3095278192162514,-0.17961247078478335,2.417799393364787
1684099582476078800,4.914078857421875,1.329001117095351,-0.9684346977889537,2.5800094784498215
1684099582486098000,4.924097900390625,0.059845689153671264,-0.25621406442821026,2.20085701661706
1684099582496115700,4.93411572265625,-0.9473276123523712,0.6817237882882357,1.1288082150965928
1684099582506134800,4.944134765625,-1.111625609627366,1.1833932072430848,-0.6531430059701204
1684099582516152600,4.954152587890625,-0.9565145428925752,1.4113234264731407,-2.523561615040898
1684099582526170600,4.964170654296875,-0.8604390179723501,0.5507207423716783,-2.7947072911411523
1684099582536189700,4.974189697265625,-0.5462123250365257,0.4595283133178949,-1.3966057498127222
1684099582546207700,4.984207763671875,-0.256951146531105,0.8256751631051301,-0.14087123671919108
1684099582556226800,4.994226806640625,-0.1522621070444584,1.0286071346789598,0.13391016553491353
1684099582566244600,5.00424462890625,-0.2511269704222679,1.1493395464718341,0.12465952210873364
1684099582576263700,5.014263671875,-0.34528000284731386,0.46197044577300544,0.49694209817200896
1684099582586281700,5.02428173828125,-0.44220308450758455,-1.3618880721747875,2.4708348179817197
1684099582596299800,5.0342998046875,-0.6573451338350772,-3.062461571237445,5.021252291244268
1684099582606318600,5.044318603515625,-0.9906465295970439,-3.539760519045591,6.65214084418416
1684099582616336600,5.054336669921875,-0.9348252736538648,-3.0618928314387794,6.478037492209673
1684099582626355700,5.064355712890625,-0.37292964179515836,-2.478864979702234,5.633233850264549
1684099582636373800,5.074373779296875,0.4968769239813089,-2.185138053959608,4.32857660856992
1684099582646392600,5.084392578125,1.37036948479414,-2.8979215819001194,2.4457734419614074
1684099582656410600,5.09441064453125,1.6059300527721643,-3.8791198996722698,1.0918529876649379
1684099582666429000,5.104428955078125,0.5564426271498203,-3.383300375789404,0.48095104057490823
1684099582676447700,5.11444775390625,-1.1887246313989162,-1.5820803906291723,-0.2854550642207265
1684099582686465800,5.1244658203125,-2.194295173883438,0.2746159825593233,-1.129706917501986
1684099582696484900,5.13448486328125,-1.8733885647922752,1.4114204571068285,-1.8136816995874045
1684099582706502700,5.144502685546875,-1.4470014735758303,1.8842671016812322,-1.7898375904023647
1684099582716520700,5.154520751953125,-0.5924906766086816,2.6482857268184423,-2.1985867335975167
1684099582726539500,5.16453955078125,1.1543874775111675,3.600159165906906,-2.496525139555335
1684099582736557800,5.174557861328125,2.9750469071567056,3.8407863696247335,-3.0639132313504813
1684099582746577000,5.184576904296875,3.2274346912950276,3.772304954072833,-4.771479950301349
1684099582756594700,5.1945947265625,1.18957511074841,4.131121314841509,-5.6548880481898784
1684099582766613800,5.20461376953125,-0.46706455404162406,4.2547061934560535,-5.443050301104783
1684099582776631600,5.214631591796875,-0.9222212281465529,4.711072827872633,-4.319594552952051
1684099582786649600,5.224649658203125,-0.40472821711599827,4.5228824983567,-3.554916002601385
1684099582796668700,5.234668701171875,-0.025265958681702613,3.606459142833948,-2.8546237074434755
1684099582806686700,5.244686767578125,-0.04448796102404594,1.8281898251503705,-2.8783652330368756
1684099582816705800,5.254705810546875,-0.3342909913212061,0.4731044187277555,-0.9723743753254414
1684099582826723600,5.2647236328125,-0.21403671843409536,-0.48432490092217917,1.5910668301612139
1684099582836741600,5.27474169921875,-0.03713233756422996,0.11074994696080684,3.571637420299649
1684099582846760700,5.2847607421875,0.5501555097043513,1.0771183598697185,3.0018361298829315
1684099582856778500,5.294778564453125,0.6252209798216819,1.777307779175043,3.164255181543529
1684099582866797600,5.304797607421875,0.5329705661475658,2.4148925660073757,2.9702094039976594
1684099582876816000,5.31481591796875,0.0393745635330677,3.620446167132258,3.4026112254589793
1684099582886834700,5.324834716796875,0.5245972900778055,0.15862988851070403,-5.321109682565927
1684099582896852700,5.334852783203125,1.0446154356718063,-4.50725238302648,-7.6431795879691835
1684099582906870500,5.34487060546875,-1.3037018406659364,0.058465632972121234,1.2274420461975037
1684099582916889600,5.3548896484375,-3.4514006830692288,3.0767104613423344,4.190671235918998
1684099582926908000,5.364907958984375,-3.168883133605122,2.3905378769516945,3.0325802277147766
1684099582936926700,5.3749267578125,-2.048296803408861,2.2160925796717406,2.54476280850172
1684099582946944800,5.38494482421875,-0.5355635052502155,4.135723255679011,3.3499493103295563
1684099582956962600,5.394962646484375,0.49606853020787234,5.898186516943573,2.06060800344944
1684099582966981600,5.404981689453125,1.8972598542451857,5.306414802259207,-0.6671954967200756
1684099582976999700,5.414999755859375,2.811069227877259,3.5278158142298457,-1.2708024644963443
1684099582987018500,5.4250185546875,2.728481545561552,3.09115399723649,-0.07219152211621403
1684099582997036800,5.435036865234375,1.9633973370194433,2.902939117801189,1.6216306029900907
1684099583007056000,5.445055908203125,0.8220598952174186,2.557611184158921,2.3119131069175896
1684099583017073700,5.45507373046875,-0.038895255583524704,1.799116875401139,1.6161387275755406
1684099583027091700,5.465091796875,-0.8589157539278268,0.32277298748493194,0.6246021172709763
1684099583037110800,5.47511083984375,-1.155716095766425,-1.0638210714012384,0.4989253809437155
1684099583047128600,5.485128662109375,-1.0883388420641422,-1.5234797331005334,0.25301029995083807
1684099583057147600,5.495147705078125,-0.5900064585775137,-1.4255886831909417,0.005899433302134275
1684099583067165700,5.505165771484375,0.08851473427712916,-1.6897224347025155,-0.7103494326613843
1684099583077184800,5.515184814453125,0.2833580919414759,-2.3000375218153,-1.4457520580366252
1684099583087202800,5.525202880859375,-0.16826631638407707,-2.411339257439971,-1.7295424039155243
1684099583097220600,5.535220703125,-0.8354168049186468,-2.580809688916802,-1.5441601175576447
1684099583107239700,5.54523974609375,-1.1044652164787054,-2.67645091407299,-1.2603005058348178
1684099583117257500,5.555257568359375,-0.8964724543839693,-2.429455928888917,-0.9070698362439871
1684099583127276500,5.565276611328125,-0.3051332858979702,-1.8956278691291808,-0.33840397959798574
1684099583137294800,5.575294921875,0.3573731762230396,-0.9472668220758438,0.30907968543618913
1684099583147312600,5.585312744140625,0.5705564926981925,0.015875030001997945,0.8212783894509077
1684099583157331700,5.595331787109375,0.5395347469687461,0.7281687285989522,0.8884230034410953
1684099583167349500,5.605349609375,0.3833224409937858,0.7533657136976718,1.063402261467278
1684099583177368600,5.61536865234375,0.22849837450683116,0.8285591941088437,1.2648235362172127
1684099583187386600,5.62538671875,0.14926935496926308,1.5346306571900843,1.110631337893009
1684099583197405700,5.63540576171875,0.11750292835235596,1.7055273220777512,0.923064108711481
1684099583207423700,5.645423828125,0.35417467244267464,1.3814508507788181,0.8926257158279418
1684099583217441800,5.65544189453125,0.5315203673392533,1.2073100894033908,0.6855658506691455
1684099583227460600,5.665460693359375,0.5011860193520784,0.901241568481922,0.664484776456654
1684099583237478700,5.675478759765625,0.5016238262474536,0.06483341443836689,0.5216095064386725
1684099583247497700,5.685497802734375,0.04570201298892498,-0.7655237690031528,0.5135185544416309
1684099583257515800,5.695515869140625,-0.3887257613420486,-0.981746599304676,0.46956572320759293
1684099583267533800,5.705533935546875,-0.12820786224007605,-0.6851783126562834,0.5995332885965704
1684099583277552600,5.715552734375,0.30081308461129663,-0.601195961111784,0.5430243426501751
1684099583287570700,5.72557080078125,0.6540893469095229,-0.7093272500067949,0.5945698209702969
1684099583297589800,5.73558984375,0.6353484060823917,-0.9927700976222753,0.6442050817549229
1684099583307607600,5.745607666015625,0.36599370505213735,-1.1972656652510165,0.6041191550821066
1684099583317626600,5.755626708984375,0.26404373514056206,-1.5331202526271341,0.4488505596980452
1684099583327644700,5.765644775390625,-0.13120529049038887,-1.740052692013979,-0.10914514211267232
1684099583337662700,5.775662841796875,-0.4979483526051044,-1.4048521846324205,-0.4615601114064455
1684099583347681800,5.785681884765625,-0.7378677003145218,-1.1022048703312872,-0.4647738127559423
1684099583357699600,5.795699462890625,-1.049533602851629,-1.1275351264208555,-0.4125806841820478
1684099583367718700,5.80571875,-1.0713754323035478,-1.2426017675369978,-0.4127718228399753
1684099583377736700,5.81573681640625,-1.1674831059277058,-1.6692904720485209,-0.21011516107618808
1684099583387754800,5.825754638671875,-0.8760533512115478,-1.7115581266745923,-0.00016600421667099
1684099583397773800,5.83577392578125,-0.41545068666040896,-1.297544487079978,0.15329787983298301
1684099583407791600,5.84579150390625,-0.10313771839141846,-0.5418664047867059,0.2178004548817873
1684099583417810700,5.855810791015625,-0.1533019714862108,1.3755802051797508,0.35241643059849737
1684099583427828700,5.865828857421875,-0.250240835237503,4.064629611802101,1.4182032491147518
1684099583437847600,5.87584765625,2.1816776843726635,-1.7485937258660793,1.5731629246801138
1684099583447865600,5.885865478515625,2.3440748164623972,-5.124460736784338,0.18442133237123487
1684099583457883600,5.895883544921875,-0.6225421160012483,-5.545505297929048,-0.8438111237764359
1684099583467902700,5.90590283203125,-2.1692039872467515,-4.902423667246103,-0.5644318723380566
1684099583477920800,5.915920654296875,-1.7914321661174297,-3.423404714901745,0.4789958148539066
1684099583487939600,5.925939697265625,-0.929627120488882,-1.8439824375659226,1.247347500759363
1684099583497957600,5.93595751953125,-0.005461772537231445,-0.9540601354777812,1.178116728144884
1684099583507976000,5.945975830078125,0.6903215207636356,-0.6928691594198346,0.7746224367380142
1684099583517995000,5.9559951171875,0.6928092459261417,-0.45872664154618975,0.2668944483965635
1684099583528012800,5.9660126953125,0.33871816011369227,-0.3903174144476652,-0.3383201007068157
1684099583538031900,5.976031982421875,-0.16308979052901268,0.036034313194453715,-0.7621586764842271
1684099583548050000,5.9860498046875,-0.6275508840739726,0.9392422133132815,-0.9478320547431707
1684099583558068700,5.99606884765625,-0.6823498112320899,1.5652090430662036,-1.0484230112612247
1684099583568086800,6.006086669921875,-0.36033027246296406,1.6080188417449592,-0.9598562545359134
1684099583578104800,6.016104736328125,-0.0004284545451402664,1.0604711764514445,-0.7819517567127943
1684099583588124000,6.0261240234375,0.24237667773365973,0.3333858591750264,-0.5533218647807836
1684099583598142000,6.036141845703125,0.26986498863995073,-0.12941636124700306,-0.2578279293656349
1684099583608160800,6.046160888671875,0.19517244348824023,-0.3295844210654497,0.1384329036563635
1684099583618178800,6.0561787109375,0.03440495842695236,-0.3600131693378091,0.5393973843246698
1684099583628198000,6.066197998046875,-0.14266542665958404,-0.31013299388140436,0.7441098095744848
1684099583638215700,6.076215576171875,-0.24042905079722404,-0.2217950774759054,0.5955968259304761
1684099583648234000,6.08623388671875,-0.18451953204870222,-0.016828092943131923,0.1493424202054739
1684099583658252800,6.096252685546875,-0.08837737163305281,0.16143354775458574,-0.12364099271595477
1684099583668270800,6.106270751953125,-0.007930792999267577,0.24901538509577512,-0.18409575367867945
1684099583678290000,6.1162900390625,-0.06829904472231864,0.2440811435639858,-0.09401742334663868
1684099583688307700,6.1263076171875,-0.07473463072776794,0.16026801110655067,0.011463643300533293
1684099583698325800,6.13632568359375,-0.07139233456254004,0.04658025712817907,0.051826633349061006
1684099583708344600,6.146344482421875,-0.07791033815443515,-0.013342296653985977,-0.05925999822020531
1684099583718363000,6.15636279296875,-0.0549380433678627,-0.04104571161568164,-0.0980944635272026
1684099583728382000,6.1663818359375,0.015108721804618835,-0.11225392178297042,-0.09593991584181785
1684099583738399700,6.176399658203125,0.057954176318645474,-0.13045914829820393,-0.1523521234154701
1684099583748418800,6.186418701171875,-0.04703238480985164,-0.07609101377278565,-0.14436287822723387
1684099583758436900,6.196436767578125,-0.20449147597551345,-0.010023673625290393,-0.09640519526600837
1684099583768455000,6.206454833984375,-0.24315818350017068,0.027668928170204162,-0.05309270776212215
1684099583778473700,6.2164736328125,-0.1416167943894863,0.018727204562723636,-0.011968670213222503
1684099583788491800,6.22649169921875,0.015359481695294379,-0.012173252874612808,-0.032252164307236666
1684099583798510800,6.2365107421875,0.13130232112407683,-0.06927519627809524,-0.038493104523420335
1684099583808529000,6.24652880859375,0.18732699068486688,-0.08757306951284408,0.003940846580266952
1684099583818546700,6.256546630859375,0.17568740629553795,-0.04968377610146999,0.024734628283977506
1684099583828565800,6.266565673828125,0.13282324708104132,-0.027377251747250555,0.06728957541882992
1684099583838583800,6.276583740234375,0.10960369953513145,-0.033737726689875125,0.08289514082968234
1684099583848603000,6.286602783203125,0.09446107546091079,-0.031384441561996934,0.06423486402332783
1684099583858621000,6.296620849609375,0.08760463369488716,-0.0637824440807104,0.04118132069408893
1684099583868639700,6.3066396484375,0.054825230643153186,-0.07832067252099513,0.0382066887974739
1684099583878657800,6.31665771484375,0.028399580532312393,-0.09861234992146492,0.03296703457832336
1684099583888675800,6.32667578125,-0.033682489371299744,-0.10636661731004714,0.03892681976556778
1684099583898694700,6.336694580078125,-0.07010697092711925,-0.08382394611239433,0.013909282886981964
1684099583908713000,6.346712890625,-0.07351297997832298,-0.051604515030980104,-0.02508826402723789
1684099583918732000,6.35673193359375,-0.06361994699537754,-0.011668518222868442,-0.06005027181506157
1684099583928749800,6.366749755859375,-0.009758592948317527,0.04497486775815487,-0.048474984833598134
1684099583938768000,6.376767822265625,0.05213409186303615,0.07782324439287185,0.027213585618138313
1684099583948786700,6.38678662109375,0.11780804877877235,0.07997457720786333,0.1177834988594055
1684099583958804700,6.3968046875,0.13003390862345696,0.10073182629346847,0.16552607776522635
1684099583968823800,6.40682373046875,0.0796118813753128,0.1679781470924616,0.15914602133929728
1684099583978841900,6.416841796875,-0.001183072304725647,0.3174120449736714,0.09893851313591003
1684099583988861000,6.42686083984375,-0.06821428904831409,0.5375596475034952,0.0071019409596920005
1684099583998878700,6.436878662109375,-0.06998129872083664,0.6401908776775002,0.0020949264526367185
1684099584008896800,6.446896728515625,-0.12050327921211719,0.5582683812722563,0.15742635793983936
1684099584018915800,6.456915771484375,-0.22000819405913352,0.3030453737080097,0.377585358646512
1684099584028934000,6.466933837890625,-0.2388222001224756,-0.06700579004138708,0.5612485661268234
1684099584038952700,6.47695263671875,-0.13878712392151354,-0.46393151671290395,0.5141939694851636
1684099584048970800,6.486970703125,0.011138649129867553,-0.7820596010014415,0.2214724213927984
1684099584058988800,6.49698876953125,0.13351532099843025,-0.9464838550046085,-0.1898790132552385
1684099584069008000,6.5070078125,0.3419441364228725,-0.9035127282842993,-0.4927209733456373
1684099584079025700,6.517025634765625,0.5551426504671574,-0.6904372560977935,-0.5864484738349914
1684099584089044700,6.527044677734375,0.6205950735867023,-0.28138211569339033,-0.46437107717394827
1684099584099063000,6.53706298828125,0.42193887963593,0.10406710819602012,-0.28105741378366944
1684099584109081900,6.547081787109375,0.08958733194470406,0.3992497857049107,-0.07824936085045338
1684099584119100000,6.557099853515625,-0.2167325333893299,0.5413379969984292,0.11657412306964397
1684099584129117700,6.56711767578125,-0.4879331545472145,0.5560495361790061,0.3173854492276907
1684099584139136800,6.57713671875,-0.6657341919958591,0.4199161416366696,0.38555765269994735
1684099584149154800,6.58715478515625,-0.6205389594852924,0.21936697354614734,0.27570319327414033
1684099584159173600,6.597173583984375,-0.44156186399459835,0.015601766018569468,0.09500877247154713
1684099584169192000,6.60719189453125,-0.2713911752939224,-0.10726970362961291,-0.10573884080052375
1684099584179211000,6.6172109375,-0.11778232981562614,-0.13457272109687327,-0.24858430020213126
1684099584189228800,6.627228759765625,0.02489361823797226,-0.09141074797958135,-0.29358897857666016
1684099584199246800,6.637246826171875,0.11591887403130531,-0.01795885053873062,-0.23097674731910228
1684099584209265700,6.647265625,0.16103987226188182,0.03220832516551018,-0.14506430449485777
1684099584219283700,6.65728369140625,0.1315694476276636,0.012543547491729258,-0.05173953958749771
1684099584229302800,6.667302734375,0.06925181540250777,-0.04577946213930845,-0.01784253068268299
1684099584239320800,6.67732080078125,-0.05604512782692909,-0.11471680476516484,0.025720716711878776
1684099584249339000,6.6873388671875,-0.13196399990320204,-0.1467623405843973,0.002729717224836349
1684099584259358000,6.69735791015625,-0.1550187122762203,-0.14272037171721458,-0.03416121279895305
1684099584269375700,6.707375732421875,-0.1116927807688713,-0.15542787759900092,-0.0959159504443407
1684099584279394800,6.717394775390625,-0.01058452237844467,-0.1462479613214731,-0.13605156147778033
1684099584289412900,6.727412841796875,0.05920563768446445,-0.18927286405563354,-0.14588438870608805
1684099584299431700,6.737431640625,0.12675707890987395,-0.23607903889417647,-0.16280805097818374
1684099584309450000,6.747449951171875,0.16619126367568968,-0.22456337314546107,-0.14658932210505007
1684099584319467800,6.7574677734375,0.15052432346642017,-0.16234481738060713,-0.07942249628305435
1684099584329486800,6.76748681640625,0.14728256506621837,-0.09887567703276873,0.04966507140100002
1684099584339504600,6.777504638671875,0.06664777038395404,0.018394027085602283,0.19303309337198732
1684099584349523700,6.787523681640625,-0.03558919977545738,0.08111439489275217,0.24454057776927945
1684099584359542000,6.7975419921875,-0.11834580891728401,0.10641659393161534,0.24671558372080324
1684099584369559800,6.807559814453125,-0.16194880380034446,0.1287049981072545,0.1464186417132616
1684099584379579000,6.817578857421875,-0.18037059567570685,0.14521189627200365,-0.016347908210754394
1684099584389596700,6.8275966796875,-0.16340543234944344,0.13791706308871507,-0.09314882381856442
1684099584399615700,6.83761572265625,-0.07068155594468116,0.07863602208048105,-0.10071604420244692
1684099584409633800,6.8476337890625,0.030192893689870832,0.0741194214388728,-0.053445758983492846
1684099584419652600,6.857652587890625,0.062107204344868654,0.07307400403916835,0.045404491347074506
1684099584429671000,6.8676708984375,0.02867547486424446,0.03659340838193893,0.1291208854317665
1684099584439689000,6.87768896484375,-0.09731178871691226,0.04813946926891804,0.17250059295296669
1684099584449707800,6.887707763671875,-0.2508306178241968,0.09916413858532905,0.17343875058591365
1684099584459725800,6.897725830078125,-0.3959995517373085,0.14194383438676594,0.13300327982306479
1684099584469745000,6.907744873046875,-0.4418734141618013,0.13843816435337067,0.08664718683958053
1684099584479762700,6.9177626953125,-0.36191900295913215,0.11731032838970422,-0.0061287120133638375
1684099584489781800,6.92778173828125,-0.247549696457386,0.08374035948216915,-0.09916939928233623
1684099584499799800,6.9377998046875,-0.15610358490347861,0.03521422898322343,-0.14810732545256614
1684099584509817600,6.947817626953125,-0.13303952018022536,-0.015190262608230113,-0.19852701461315153
1684099584519836700,6.957836669921875,-0.17008651754856108,-0.07135989359766244,-0.24338614703714845
1684099584529854700,6.967854736328125,-0.17729776410162448,-0.06961217314749955,-0.34659985327422616
1684099584539873500,6.97787353515625,-0.2537549808382988,0.006761749219894409,-0.35625615489184853
1684099584549891600,6.9878916015625,-0.21833879954218863,0.12389847460836172,-0.22222119393348694
1684099584559909600,6.99790966796875,0.03714695061147213,0.2649868612095713,-0.011856442010402679
1684099584569928700,7.0079287109375,0.39953707821369167,0.3006809826642275,0.2124006416648626
1684099584579946800,7.01794677734375,0.7325415368556976,0.21933014866709707,0.396934786760807
1684099584589965600,7.027965576171875,0.9003694618225098,-0.00554477464556694,0.5411410131216049
1684099584599983600,7.037983642578125,0.7473153276175261,-0.2789677480280399,0.6185363874912262
1684099584610002700,7.048002685546875,0.4066138847321272,-0.43666240151524544,0.5661112037271261
1684099584620020700,7.058020751953125,0.09195464559793472,-0.4088695547044277,0.4803022212773561
1684099584630038800,7.068038818359375,-0.10004968924820423,-0.21207710879892108,0.3364578139662742
1684099584640057900,7.078057861328125,-0.17108897258937358,0.06767448308318853,0.134349433735013
1684099584650075600,7.08807568359375,-0.19077859244346618,0.24475451278090476,-0.03787058871090412
1684099584660094700,7.0980947265625,-0.1837017859250307,0.31737054391950364,-0.1804296323865652
1684099584670112500,7.108112548828125,-0.11074059461057185,0.25638269899338484,-0.26616788768768307
1684099584680130800,7.118130859375,-0.05068272401094436,0.1769435438364744,-0.29060499432981013
1684099584690150000,7.12814990234375,-0.024165303963422775,0.11720423766672611,-0.2765805606305599
1684099584700167700,7.138167724609375,-0.051741877675056454,0.06988602165281772,-0.21483985151052473
1684099584710186800,7.148186767578125,-0.13828268153071402,0.02601414670050144,-0.13653846821188925
1684099584720204500,7.15820458984375,-0.19617372948527334,-0.00007569558471441268,-0.08926467586159706
1684099584730223600,7.1682236328125,-0.18964812710881232,-0.02818535325974226,-0.017732056045532227
1684099584740241700,7.17824169921875,-0.19670505988299847,-0.04615063353925943,0.021390578553080557
1684099584750259700,7.188259765625,-0.14819032756090164,-0.09048749565482139,0.0001958148330450058
1684099584760278800,7.19827880859375,-0.04407353500425815,-0.16958353646248578,-0.030025135907530785
1684099584770296600,7.208296630859375,0.020267712002992627,-0.25200287647396324,0.006443769311904907
1684099584780315600,7.218315673828125,0.023126608565449715,-0.26804917138963935,0.034085809475183484
1684099584790333700,7.228333740234375,0.009472761744260788,-0.19350918645113704,0.03288637055754661
1684099584800351700,7.238351806640625,-0.001505143865942955,-0.0912105492323637,0.03304945216476917
1684099584810370600,7.24837060546875,-0.009120879566669463,0.0265802561506629,0.030726562175154685
1684099584820388900,7.258388916015625,-0.01780804389119148,0.10650397995412349,-0.019315525844693184
1684099584830407700,7.26840771484375,-0.04098550586104393,0.14003478589504956,-0.1554769774377346
1684099584840425700,7.27842578125,-0.04619418042004108,0.12379530649483203,-0.20314473754167556
1684099584850444800,7.28844482421875,0.019787235009670258,0.06390022524148226,-0.067076809450984
1684099584860462600,7.298462646484375,0.15380641387701033,0.05070493584275245,0.08382628419995307
1684099584870481000,7.30848095703125,0.2079746419161558,0.0516004233777523,0.17404782239496708
1684099584880499700,7.318499755859375,0.20192425583600998,0.014638766205310821,0.2136427506804466
1684099584890517800,7.328517822265625,0.16048106933534145,-0.03896306012272834,0.21475918748974798
1684099584900536800,7.338536865234375,0.08994155220985411,-0.10061024574041366,0.15766718095839022
1684099584910554600,7.3485546875,0.026385318100452422,-0.1115969191789627,0.0911100114673376
1684099584920573700,7.35857373046875,0.03887888897061348,-0.0926376594260335,0.05247019194960594
1684099584930591500,7.368591552734375,0.05329495233595371,-0.06359948872923851,0.031411037307977674
1684099584940609800,7.37860986328125,0.11404431233108044,-0.054335693560540674,0.06110241121649742
1684099584950628900,7.38862890625,0.15377426517307757,-0.04813713118135929,0.11262450866103171
1684099584960646700,7.398646728515625,0.12222352713346481,-0.013036007183790206,0.1561731430083513
1684099584970665700,7.408665771484375,0.07848141604065895,0.03316431071609258,0.21710896548628805
1684099584980683800,7.418683837890625,0.04182838642597198,0.07903437374830245,0.21575813539922237
1684099584990701600,7.42870166015625,0.01697860732972622,0.12779957370012998,0.20494331139624117
1684099585000720600,7.438720703125,-0.030223288828134534,0.11214870784282684,0.16678513791561125
1684099585010738700,7.44873876953125,-0.013085107022523879,0.053204059182107445,0.13598083432912825
1684099585020757800,7.4587578125,-0.012813888865709304,-0.040809564772248265,0.06614625060260296
1684099585030775800,7.46877587890625,-0.003273322582244873,-0.1185705575838685,0.009060089290142058
1684099585040794600,7.478794677734375,0.005169511592388153,-0.17104162631630895,-0.03312193287909031
1684099585050812700,7.488812744140625,-0.0137421096265316,-0.18914660732746122,-0.06802841108739376
1684099585060830700,7.498830810546875,-0.038896424627304076,-0.16816987027227878,-0.09717442607283591
1684099585070849500,7.508849609375,-0.05709609818458557,-0.1347530460998416,-0.10923252813518047
1684099585080867800,7.518867919921875,-0.059123220098018646,-0.09724778356999159,-0.13385843534767627
1684099585090886700,7.52888671875,-0.08146013959050179,-0.06429360847324132,-0.16363865658342838
1684099585100904700,7.53890478515625,-0.13893091630637644,-0.0648591334015131,-0.18451485587358474
1684099585110922500,7.548922607421875,-0.1962812815129757,-0.07706219689249992,-0.2102005012720823
1684099585120941600,7.558941650390625,-0.2601753692746162,-0.09157587541341781,-0.1815712036371231
1684099585130960000,7.5689599609375,-0.27531857787072656,-0.07207885552197695,-0.11487257984876632
1684099585140978700,7.578978759765625,-0.2602455119013786,-0.007215045945346355,-0.11648352217674254
1684099585150996700,7.588996826171875,-0.24587621028721332,0.06607143180072307,-0.14945874006152152
1684099585161015800,7.599015869140625,-0.20181085858941078,0.07147124501764773,-0.19948446146845816
1684099585171033600,7.60903369140625,-0.14552783035337924,0.041806466855108734,-0.23829320781230925
1684099585181051600,7.6190517578125,-0.07466156549155711,-0.03474719599336386,-0.22675182310044764
1684099585191070700,7.62907080078125,-0.010806640696525573,-0.050452130125463006,-0.20277122805416584
1684099585201088800,7.6390888671875,0.06175590668916702,-0.028320962338149545,-0.14754384635090828
1684099585211107800,7.64910791015625,0.09732464819848537,0.011860241402685642,0.013922142368555069
1684099585221125600,7.659125732421875,0.06666589056253433,-0.015413549970090389,0.2003448776900768
1684099585231144700,7.669144775390625,0.062170917230844495,-0.09584083938151597,0.27644787416160105
1684099585241162800,7.679162841796875,0.10682546699345111,-0.18067659288495777,0.2673521290361881
1684099585251180500,7.6891806640625,0.1421446176558733,-0.21614742697775363,0.18961773197054863
1684099585261199600,7.69919970703125,0.11399287440478802,-0.19504209510684012,0.10039163455367088
1684099585271217700,7.7092177734375,0.06490998680591582,-0.10372837776094675,0.09865969619452952
1684099585281236700,7.71923681640625,0.01220364801287651,-0.027512860825657844,0.041805590072274204
1684099585291254800,7.7292548828125,-0.09965630601644515,0.056523266732692715,-0.03722995271980762
1684099585301272600,7.7392724609375,-0.21546996610760688,0.11011895558089017,-0.1241536184132099
1684099585311291600,7.749291748046875,-0.273051801982522,0.1799476940885186,-0.11995265959203243
1684099585321309700,7.759309814453125,-0.20426175887286663,0.22000117979645728,-0.030192893689870832
1684099585331328500,7.76932861328125,-0.0853285054564476,0.22985008137673138,0.0637000264942646
1684099585341346800,7.779346923828125,-0.006826046627759933,0.20303864681869743,0.13829554101228714
1684099585351366000,7.789365966796875,0.005909516304731369,0.1289946287035942,0.16312895349562168
1684099585361383700,7.7993837890625,-0.09554244095683097,0.0637938422575593,0.08324293135404587
1684099585371401700,7.809401611328125,-0.13566636155247688,-0.015514672257006168,-0.0931575916469097
1684099585381420500,7.819420654296875,-0.0771112967312336,-0.11038286721408366,-0.23348668431341646
1684099585391438800,7.82943896484375,0.02990063274502754,-0.16028730032891034,-0.29992051968574523
1684099585401457700,7.839457763671875,0.07936053696274757,-0.19011077618449926,-0.25193887132704257
1684099585411475700,7.849475830078125,0.08154372622072696,-0.2543815883040428,-0.16610592347979544
1684099585421493800,7.85949365234375,0.06637889031469822,-0.2718272286236286,-0.08943360268771648
1684099585431512600,7.8695126953125,0.03119476420879364,-0.2837973601415753,-0.12722761903107166
1684099585441530600,7.879530517578125,0.017778817796707154,-0.25775515639036894,-0.22079905217587947
1684099585451549700,7.8895498046875,0.045559974169731135,-0.20875877803117035,-0.2982394347310066
1684099585461567700,7.899567626953125,0.06916062998771667,-0.16295125884115694,-0.3091810999840498
1684099585471586800,7.9095869140625,0.06683189477920531,-0.09090601332783699,-0.2195212873250246
1684099585481604600,7.9196044921875,0.053740942537784574,-0.035144086356461046,-0.05379062689840793
1684099585491622700,7.92962255859375,0.05424421588480472,0.0005278232663869858,0.16845336338877676
1684099585501641700,7.939641845703125,0.044916415569186206,0.02868628851920366,0.37590953438878055
1684099585511661300,7.949661376953125,0.03705751876235008,0.04836187984794378,0.4783680383443832
1684099585521680100,7.95968017578125,0.027346272087097168,0.07088613860607147,0.5009942961722612
1684099585531698200,7.9696982421875,0.0157376673579216,0.14079904826581477,0.43977205796837804
1684099585541717200,7.97971728515625,0.007788169658184051,0.2078767344996333,0.33833120662271976
1684099585551735000,7.989735107421875,0.040054947012662885,0.2432926235347986,0.2770896791964769
1684099585561753300,7.99975341796875,0.07914309481978415,0.2983034398779273,0.2047948428362608
1684099585571772200,8.009772216796875,0.0933235958635807,0.2790539650067687,0.1703641654461622
1684099585581790200,8.019790283203125,0.053824529168009755,0.21753566646575925,0.15328268226385117
1684099585591809300,8.029809326171875,-0.021053893944621083,0.12415566423982381,0.17524609226882457
1684099585601827000,8.0398271484375,-0.07178805588185787,0.06605857231914997,0.20311025075018405
1684099585611845400,8.049845458984375,-0.09209960702657699,-0.008215747420489788,0.2003285110771656
1684099585621864200,8.0598642578125,-0.052991585475206375,-0.058602995616197584,0.13930091866254807
1684099585631882200,8.06988232421875,-0.059742813301086425,-0.09277765241861342,0.05178805490434169
1684099585641901300,8.0799013671875,-0.09478899224102497,-0.11335983719825744,-0.06692541828155517
1684099585651919000,8.089919189453125,-0.08396715397536754,-0.10244476769119501,-0.2515817284524441
1684099585661938200,8.099938232421875,-0.08515490245521068,-0.10622896240502595,-0.357834948515892
1684099585671956200,8.109956298828125,-0.11760346611738204,-0.06384528018385172,-0.38275545476078987
1684099585681974300,8.119974365234375,-0.174447050845623,0.004713584518432617,-0.35593700594007965
1684099585691993300,8.129993408203125,-0.24406126981973647,0.07518675840944052,-0.27132103266716
1684099585702011100,8.14001123046875,-0.2575590492963791,0.05672551130652427,-0.11248480792939662
1684099585712030200,8.1500302734375,-0.18319383640289305,0.01340571727901697,0.030635961282253262
1684099585722048300,8.16004833984375,-0.1585614994496107,-0.03955868792831897,0.11009703601002692
1684099585732066000,8.170066162109375,-0.1883627634733915,-0.058280339533090586,0.12425123356878756
1684099585742085000,8.180085205078125,-0.20529986974894998,-0.06599018325805664,0.09453647878468036
1684099585752103200,8.190103271484375,-0.2217296110242605,-0.06229688169807195,0.04784136310517788
1684099585762122200,8.200122314453125,-0.2123836905300617,-0.02544599142372608,-0.009937456646561623
1684099585772140300,8.210140380859375,-0.1949731215238571,-0.024361703318357467,-0.07490823372900486
1684099585782159000,8.2201591796875,-0.2599713711351156,-0.021118483613431452,-0.04676642735004425
1684099585792177200,8.23017724609375,-0.420784448903799,0.007339256846904754,0.06395721612572669
1684099585802195200,8.2401953125,-0.7678688708245753,0.02925356701314449,0.20128829602003095
1684099585812214000,8.250214111328125,-1.2430536029577255,0.13116788108944893,0.2948889552593231
1684099585822232300,8.260232421875,-1.7356898206293583,0.28286592451035975,0.4530325215578079
1684099585832251100,8.270251220703125,-2.04732883515954,0.4274748864531517,0.5673895530998706
1684099585842269200,8.280269287109375,-1.8769594090163706,0.5688926511391997,0.5526251146882772
1684099585852288300,8.290288330078125,-1.1575205148398875,0.643785102777183,0.36434710688889027
1684099585862306000,8.30030615234375,-0.15042553926706312,0.6659340984821319,0.15428396826088428
1684099585872324400,8.310324462890625,0.7564139953523874,0.6366703023359179,0.06098959849178791
1684099585882343200,8.32034326171875,1.4137404244869947,0.5403194676056504,0.013591887500882149
1684099585892361200,8.330361328125,1.7873983805567024,0.29264994416087864,0.01641863535940647
1684099585902380300,8.34038037109375,1.6937305013000965,-0.13995441413521767,-0.028504794472455977
1684099585912398000,8.350398193359375,1.186716214185953,-0.5238192914426326,-0.2906318823367357
1684099585922416000,8.360416015625,0.551250903725624,-0.7948445560336113,-0.6495271535605192
1684099585932435200,8.370435302734375,0.10179916326403617,-0.9087485831111669,-0.8701748145669698
1684099585942453200,8.380453369140625,0.047428106129169464,-0.8682114055395126,-0.8734574894994497
1684099585952472300,8.390472412109375,0.2274421434521675,-0.6856868467003107,-0.631395869064331
1684099585962490000,8.400489990234375,0.4427507815182209,-0.4709738364398479,-0.28043314440548417
1684099585972509200,8.41050927734375,0.32634383170902725,-0.3704974462121725,-0.003361585387587547
1684099585982527200,8.42052734375,-0.07876081750392913,-0.3224357183545828,0.12006138066351413
1684099585992545000,8.430544921875,-0.6150181502372026,-0.3075929540097713,0.1640039827644825
1684099586002564000,8.440564208984375,-1.1928642154216766,-0.3304822466880083,0.25177929685115813
1684099586012582400,8.45058251953125,-1.4797206708729267,-0.30098201143741604,0.33688100781440733
1684099586022601200,8.460601318359375,-1.117483688005805,-0.27480069147646424,0.42184097221940753
1684099586032619300,8.470619384765625,-0.37815059131383894,-0.27412966034710406,0.43165801735669374
1684099586042638300,8.480638427734375,0.3878524856388569,-0.25737901655435563,0.3877458103939891
1684099586052656000,8.49065625,1.0705950955808161,-0.2348661559730768,0.4258475775122642
1684099586062674200,8.500674072265625,1.5328309142917393,-0.16034136860370635,0.3934454833403229
1684099586072693000,8.51069287109375,1.4550538471281527,-0.06842354788482188,0.24074703070521353
1684099586082711300,8.520711181640625,0.7665560346603393,0.028279169023036954,-0.061333881884813306
1684099586092730400,8.53073046875,-0.17662322584092616,0.11199614762961864,-0.4393120392411947
1684099586102748200,8.540748046875,-1.0504325975179671,0.09128595255613327,-0.7163552489474415
1684099586112766200,8.55076611328125,-1.6129343785762786,-0.08581541219055652,-0.8051514305144548
1684099586122785000,8.560784912109375,-1.5292740985929965,-0.6221165840655565,-0.7577876217931508
1684099586132803300,8.57080322265625,-0.8397557109057903,-1.459669231969118,-0.7357467626377939
1684099586142822100,8.580822265625,0.428158777064085,-2.2112270194619894,-0.8977496347129345
1684099586152840200,8.590840087890625,1.5273229645252226,-2.167042425298691,-1.4480387076690793
1684099586162859300,8.600859375,2.45427355928123,-1.2086679337531328,-1.7733748236402869
1684099586172877000,8.610876953125,3.8741976408392187,-0.04483984320163727,-1.9360206697940825
1684099586182895000,8.62089501953125,4.996263980460166,0.6702391021996736,-2.1743477798759936
1684099586192914200,8.6309140625,5.474414576661586,1.0816712008684872,-1.7903958088070153
1684099586202932200,8.64093212890625,5.66420883424282,1.2419769136369228,-0.5326379731923342
1684099586212951300,8.650951416015625,5.666681946358084,1.1857365554988384,1.2662804570272563
1684099586222969300,8.66096923828125,4.713029807159304,1.07563279748708,3.5276427957504985
1684099586232988200,8.67098828125,1.4694658188402652,1.3370251413360237,6.412965008318424
1684099586243006200,8.681006103515625,-4.283945147421956,2.167911609348655,9.577031681552528
1684099586253024000,8.69102392578125,-6.8449278538405895,1.6981640998333691,9.147640147823095
1684099586263043000,8.70104296875,-4.9053895313143725,-0.19717823035269974,4.3471886623203755
1684099586273061400,8.711061279296874,-2.69698516805768,-1.769398321224749,0.22976269535422325
1684099586283080200,8.721080078125,-1.1787982806682586,-2.319718666101992,-2.241928154934943
1684099586293098200,8.73109814453125,0.36493104425668715,-2.0227850532725453,-3.720077338707447
1684099586303116000,8.741115966796874,1.4230010047852992,-1.2844769157141447,-4.209976824891567
1684099586313135000,8.751135009765624,1.7662468714565038,-0.5248150244817137,-3.7219349492728706
1684099586323153200,8.761153076171874,1.5561878244817255,0.09572568856924772,-2.5607939058482647
1684099586333172000,8.771171875,0.838974789661169,0.373898194566369,-1.2206325123131274
1684099586343190300,8.781190185546874,-0.153141227966547,0.3301940773963928,-0.05997311492562293
1684099586353209300,8.791209228515624,-0.8595721720099448,0.14861702854037284,0.8488625619471073
1684099586363227100,8.80122705078125,-1.1008791746854782,0.053254912586510175,1.498062383249402
1684099586373245200,8.8112451171875,-1.0289210229337216,0.06496960803866386,1.5555945347636937
1684099586383264300,8.82126416015625,-0.934724151366949,0.21238018339872358,1.136490001770854
1684099586393282000,8.831281982421874,-0.7651730558693408,0.42662557614743707,0.47778585454225536
1684099586403301000,8.841301025390624,-0.5705342808663845,0.60993164075315,-0.2066495307922363
1684099586413319200,8.851319091796874,-0.31061142504811284,0.6410451564192772,-0.7002619000196456
1684099586423338200,8.861338134765624,-0.18056991764008998,0.5950666645765305,-0.9287900851428508
1684099586433356300,8.871356201171874,-0.29044834246337414,0.5790925581142305,-1.0035597871839999
1684099586443374000,8.8813740234375,-0.6111842711627483,0.5072922272726893,-0.9217547796785831
1684099586453393200,8.89139306640625,-0.872940187627077,0.3887891819670796,-0.7768845364511012
1684099586463411200,8.9014111328125,-1.1557727943897247,0.24007132340073584,-0.7154448561042547
1684099586473430300,8.91143017578125,-1.48042326618433,0.1915726654306054,-0.7406593768596649
1684099586483448300,8.9214482421875,-1.7129846523463725,0.12955606197863817,-0.8119622795730829
1684099586493466000,8.931466064453126,-1.8940408921986818,0.06026157647818327,-0.9250696033149957
1684099586503485200,8.941485107421874,-1.9214660747408865,-0.30703882725834847,-0.8584878839045762
1684099586513502000,8.951501953125,-1.6754595160722732,-0.8669488382577896,-0.6121896488130092
1684099586523521000,8.96152099609375,-1.6146236468374728,-1.4497016724452376,-0.5552192228347063
1684099586533538800,8.971538818359376,-2.067552708020806,-2.031931359541416,-0.7477876213043928
1684099586543558000,8.981557861328126,-2.3303052343070507,-2.5115683949083087,-0.7699152819603681
1684099586553575700,8.99157568359375,-1.6784505145817994,-2.606248373816907,-0.301312266305089
1684099586563594000,9.001593994140626,-0.10069441689252853,-2.0799708755671977,0.33694998139739035
1684099586573613000,9.011613037109376,1.694941630655527,-0.7370879481136798,0.7137912436783314
1684099586583630800,9.021630859375,2.9341496641010045,0.9157827195316552,0.7993991505980491
1684099586593650000,9.03164990234375,3.483185814386606,2.2860297469899056,0.8707534912377596
1684099586603668000,9.04166796875,3.556445111864805,3.0730607066631315,1.1440315031915902
1684099586613686800,9.051686767578126,3.2108173184931275,3.1138018823742866,1.5205232213824986
1684099586623704800,9.061704833984376,2.4611872841924427,2.4508430003106594,1.7780384315371511
1684099586633723000,9.071722900390625,1.4602365104630588,1.5467030800387263,1.723394402679801
1684099586643742000,9.081741943359376,0.444647262789309,0.7112973810359835,1.3577572559803723
1684099586653760000,9.091760009765625,-0.39460459024757144,0.016324235074222086,0.7530868967562914
1684099586663778800,9.10177880859375,-0.8375266366794705,-0.5342117983803153,0.14147124843895434
1684099586673796900,9.111796875,-0.8394324703007936,-0.7833750675141811,-0.38981004944741726
1684099586683814700,9.121814697265625,-0.5865951888293027,-0.823662946499884,-0.8197884431540966
1684099586693833700,9.131833740234375,-0.26531653155535456,-0.8108063875362277,-1.0639788923114537
1684099586703852000,9.14185205078125,-0.012160977914929389,-0.7254562547698616,-1.203904080352187
1684099586713870800,9.151870849609375,-0.019787235009670258,-0.6424436250403524,-1.2834586785823106
1684099586723889000,9.161888916015625,-0.2768351199135184,-0.7000012032568455,-1.2433633995592595
1684099586733908000,9.171907958984375,-0.7016252973273396,-0.9886077172458171,-1.114615439093113
1684099586743925800,9.18192578125,-1.0002645450308918,-1.1047452024638653,-1.0188298370301723
1684099586753943800,9.19194384765625,-1.1898510050803421,-0.9651669281646609,-0.9026736471116542
1684099586763962600,9.201962646484375,-1.2549117985337972,-0.7202461189061403,-0.6248638369470835
1684099586773981000,9.21198095703125,-1.13791448161602,-0.4772469253599643,-0.35498657334744926
1684099586784000000,9.222,-0.8511421973168849,-0.2220017059639096,-0.16154022299945353
1684099586794017800,9.232017822265625,-0.46634266950786113,0.09560352349430322,-0.007437456524372101
1684099586804035800,9.242035888671875,-0.028357787217199802,0.2832800582692027,0.08863982196152209
1684099586814055000,9.252054931640625,0.23647505247443912,0.355100847376883,0.18016133683919905
1684099586824073000,9.262072998046875,0.4891717564314603,0.2900976293295622,0.14987667321264742
1684099586834091800,9.272091796875,0.5839169095307588,0.11960983750373125,0.06700783586800098
1684099586844109800,9.28210986328125,0.3816284965574741,-0.01670095943212509,0.12332242828607559
1684099586854129000,9.29212890625,0.06362929934561252,0.002951543281972408,0.39562136607468124
1684099586864147000,9.30214697265625,-0.17682167102247476,0.07505728681087494,0.7263520345658063
1684099586874164700,9.312164794921875,-0.2996966478019953,0.16223112787306307,0.9328694634109735
1684099586884183800,9.322183837890625,-0.30934944228827954,0.23368629853874442,0.9428542663305998
1684099586894201900,9.332201904296875,-0.24600918901711702,0.33863954191952944,0.7401034965425729
1684099586904221000,9.342220947265625,-0.09574468553066254,0.46339872501045465,0.31501638200879095
1684099586914239000,9.352239013671875,0.3453165354654193,0.4766241172865033,-0.16511808148622512
1684099586924257800,9.3622578125,0.8651102246537804,0.36739568080455065,-0.5559323395401239
1684099586934275800,9.37227587890625,1.2445225064665077,0.23662732042670248,-0.7404594703733921
1684099586944293600,9.382293701171875,1.474509073704481,0.07473696881532668,-0.6684037034660577
1684099586954312700,9.392312744140625,1.5265630860686301,-0.05735825625211,-0.5025245744794606
1684099586964331000,9.4023310546875,1.549407955083251,-0.04609188908934593,-0.4863625442296266
1684099586974348800,9.412348876953125,1.4405173722535372,-0.11881868712604045,-0.22755612522065638
1684099586984366800,9.422366943359375,1.011413131032884,-0.23186025215536354,-0.02571136436164379
1684099586994386000,9.432385986328125,0.5417103374421596,-0.33920419006496666,0.17505495361089704
1684099587004403700,9.44240380859375,0.09957418069094419,-0.3112652127817273,0.3182137167453766
1684099587014422800,9.4524228515625,-0.21346739411354063,-0.2560954064846039,0.44567105287909503
1684099587024440800,9.46244091796875,-0.21692893274426459,-0.10499620573967694,0.4613432537853718
1684099587034460000,9.4724599609375,-0.09985358215421437,0.036652737353742124,0.4061258089542389
1684099587044478000,9.48247802734375,-0.00861906752437353,0.05284779309034347,0.17525719818472862
1684099587054495700,9.492495849609375,-0.18634762425869703,-0.1182721591591835,-0.23532500565648076
1684099587064514800,9.502514892578125,-0.6154971659258007,-0.33507512743622064,-0.6288397548407316
1684099587074532900,9.512532958984375,-0.9108248048633336,-0.4400181416839361,-0.7639239325910806
1684099587084552000,9.522552001953125,-0.6889581234559417,-0.4471922710970044,-0.5015361479640007
1684099587094570000,9.532570068359375,-0.051225452585518354,-0.3493611346811056,-0.10946750593483448
1684099587104588800,9.5425888671875,0.6240741478741169,-0.037733226066827774,0.3027116117089987
1684099587114606800,9.55260693359375,0.9033648442462087,0.2843064787074923,0.48270577528774733
1684099587124625000,9.562625,0.6919213571757078,0.591508972094953,0.525776855251193
1684099587134643700,9.572643798828125,0.4129883882001042,0.7638976291060448,0.4527537046164274
1684099587144662000,9.582662109375,0.17068302213698625,0.7842559420019388,0.30520810469985005
1684099587154681000,9.59268115234375,-0.07708060933202504,0.6091971889987587,-0.06965513550639152
1684099587164699000,9.602698974609375,-0.21103987470567226,0.28523148459792136,-0.44678632064461704
1684099587174717000,9.612717041015625,-0.18337328462302685,-0.13169190496355293,-0.7480524097204208
1684099587184735700,9.62273583984375,-0.08464929102063179,-0.449104534459114,-0.9452490525126457
1684099587194753800,9.63275390625,-0.09916823023855685,-0.5479565383553504,-0.9601754034876823
1684099587204772900,9.64277294921875,-0.2943050178915262,-0.5450108402922749,-0.8848749555706977
1684099587214791000,9.652791015625,-0.46949762640744447,-0.5258849918007851,-0.7317249597758054
1684099587224810000,9.66281005859375,-0.5380442161500454,-0.4168929944232106,-0.5227350033372641
1684099587234827800,9.672827880859375,-0.5306549826815724,-0.28509295291006564,-0.38711072736084456
1684099587244845800,9.682845703125,-0.6075678342312574,-0.11571721397936344,-0.30953882738053795
1684099587254865000,9.692864990234375,-0.6861404356867075,0.008723112420737743,-0.1907949590563774
1684099587264882700,9.702882568359374,-0.7669666612878442,0.055763680537045,0.017084405791759488
1684099587274901800,9.71290185546875,-0.8539438107341527,0.14492840315550565,0.13202128304839134
1684099587284919800,9.722919921875,-0.803511846613884,0.15759148537367582,0.1780284164637327
1684099587294937900,9.732937744140624,-0.5148731839209795,0.17580051128119228,0.13864683866798877
1684099587304957000,9.74295703125,-0.3006897504925728,0.18741963740438222,0.004708908343315124
1684099587314974700,9.752974609375,-0.44937721392065283,0.17191314845383165,-0.08367430850863457
1684099587324993800,9.762993896484375,-0.6897735314920544,0.277220027577877,-0.039103345376253124
1684099587335011800,9.77301171875,-0.7689891070261597,0.4404439658805728,0.031714404168725015
1684099587345031000,9.783031005859375,-0.7003752972662448,0.6938453109756112,-0.0668979457527399
1684099587355049700,9.7930498046875,-0.9293521029397844,0.6856397926881909,-0.2126718598216772
1684099587365068000,9.803068115234375,-1.0991694481581449,0.6883963979199528,-0.2963578587681055
1684099587375085800,9.8130859375,-1.103438503779471,0.7122653492853045,-0.24881810895800588
1684099587385105000,9.82310498046875,-1.0572650738865137,0.7020785940527916,-0.0637742607742548
1684099587395122700,9.833122802734374,-0.9176759859323501,0.7118754731848835,0.23436171358227728
1684099587405141800,9.843141845703125,-0.8669526376500726,0.6903650676444173,0.3699479956358671
1684099587415160000,9.85316015625,-0.7312585113078356,0.7266855043038726,0.23781039273142812
1684099587425177900,9.863177734375,-0.8496241939693688,0.7401099262833595,0.05561258162856102
1684099587435197000,9.873197021484375,-0.9248743730038403,0.6802744662627578,0.11625614316165446
1684099587445214700,9.883214599609374,-0.843351981832087,0.5762453519895673,0.17723463573753834
1684099587455233800,9.89323388671875,-0.7534984001666307,0.4394949945926666,0.11783902843892574
1684099587465251800,9.903251953125,-0.5349804446652532,0.32758447941988705,0.06437164214551448
1684099587475270700,9.913270751953124,-0.35541152076125143,0.1666232253521681,0.06120411802530289
1684099587485289000,9.9232890625,-0.3937771995127201,0.11910977902710437,0.15049100571870802
1684099587495307000,9.93330712890625,-0.436715300746262,0.23604133723229168,0.22316110513210297
1684099587505325800,9.943325927734374,-0.44370384445935485,0.3641092064797878,0.20952537848949432
1684099587515344600,9.9533447265625,-0.4488625423967838,0.46272243318408723,0.028505378994345663
1684099587525363700,9.96336376953125,-0.42618309307694435,0.5104337401688098,-0.18178280056118964
1684099587535381800,9.9733818359375,-0.43172640641778703,0.4398717189505696,-0.2710071444123983
1684099587545399600,9.983399658203124,-0.4066097930788994,0.3595841302707791,-0.2696913856387138
1684099587555418600,9.993418701171874,-0.22543255719542502,0.264674141998589,-0.12986790440678594
1684099587565436700,10.003436767578124,-0.05697305632680654,0.19608809702843427,0.0438274512887001
1684099587575455700,10.013455810546875,0.02080839475095272,0.0849120336100459,0.24597382544279098
1684099587585473800,10.023473876953124,0.04916004448831081,-0.022663374967873094,0.4950263276785612
1684099587595492600,10.03349267578125,0.04949380648732185,-0.07377455352395773,0.5975438683450222
1684099587605510700,10.0435107421875,0.011359013882279395,-0.0438949635669589,0.5582043761253357
1684099587615528700,10.05352880859375,-0.03341594738960266,-0.001031096613407135,0.4633195222944021
1684099587625547500,10.063547607421874,-0.08615385036468505,0.035598259864747524,0.3745914375275373
1684099587635565800,10.07356591796875,-0.14947627571821212,0.06259615690559149,0.2679015796124935
1684099587645584600,10.083584716796874,-0.1763581451639533,0.1069327267602086,0.17834113567471502
1684099587655602700,10.093602783203124,-0.16445406461954115,0.1127756075695157,0.09701251350939273
1684099587665620700,10.103620849609374,-0.20806085889488457,0.138521458722651,0.06675532241165638
1684099587675639600,10.1136396484375,-0.2345171964049339,0.17141835067421196,-0.0017208324432373045
1684099587685657900,10.123657958984374,-0.20304536882042884,0.1765674040004611,-0.030428456011414525
1684099587695677000,10.133677001953124,-0.2095157338783145,0.19294629187136889,-0.05629588771760463
1684099587705694700,10.14369482421875,-0.26207506541609765,0.18939181426018475,-0.09344400737285613
1684099587715713800,10.1537138671875,-0.34558190840333697,0.1719829988196492,-0.0700222152531147
1684099587725731600,10.163731689453124,-0.37351416368484497,0.13319471074193714,-0.0557528668820858
1684099587735749600,10.17374951171875,-0.37543081096112724,0.08860562743097543,-0.048401335075497626
1684099587745768700,10.183768798828124,-0.35548049434423445,0.05169716175049543,0.05063070156276226
1684099587755786800,10.193786865234374,-0.3403828784555197,-0.0207394211679697,0.20386779111921785
1684099587765805800,10.203805908203124,-0.2459673957020044,-0.08091828779876231,0.26047873613536354
1684099587775823600,10.21382373046875,-0.17673662308752536,-0.13247078038156032,0.1975707368016243
1684099587785842700,10.2238427734375,-0.1184571603372693,-0.21576690322756767,0.15437807628512382
1684099587795860700,10.23386083984375,-0.1080675760090351,-0.25198124916404485,0.1875923636227846
1684099587805878500,10.24387841796875,-0.10144523525983094,-0.19070348138064144,0.13542963018715382
1684099587815897600,10.253897705078124,-0.12193448105901479,0.004298866237699985,-0.003492518290877342
1684099587825915600,10.26391552734375,-0.08428571840524673,0.17146657373011112,-0.10049743301570414
1684099587835934700,10.273934814453124,-0.08763707465976477,0.2938222028106451,-0.13900105893313883
1684099587845952800,10.283952880859376,-0.029448505063354967,0.3022515929818153,-0.011453121906518935
1684099587855970600,10.293970458984376,-0.007360299634933471,0.26150807918310165,0.14290566515624523
1684099587865989600,10.30398974609375,-0.0016144494593143461,0.19598346761018037,0.21570085225403307
1684099587876007700,10.314007568359376,-0.0005675707548856735,0.15937983009517193,0.1344838737696409
1684099587886026500,10.324026611328126,-0.047432782304286956,0.15253186389654874,-0.07111293309926986
1684099587896044800,10.334044921875,-0.15611995151638983,0.15445552543550728,-0.2565513335585594
1684099587906064000,10.34406396484375,-0.17967735271453855,0.07727554738223552,-0.29288989039659497
1684099587916081700,10.35408154296875,-0.14713585007190705,-0.0050672202616930005,-0.24722002611160276
1684099587926099700,10.364099609375,-0.16494681657254695,-0.08402502164244652,-0.08504150520861148
1684099587936118500,10.374118408203126,-0.15269173063337801,-0.16453882029354572,0.09727496383786201
1684099587946136800,10.38413671875,-0.09033318187594414,-0.1974061938896775,0.21624095048010347
1684099587956156000,10.394156005859376,0.008392857553064823,-0.1805734247714281,0.19656828176081179
1684099587966173700,10.404173583984376,0.08392623744308948,-0.10474106193482875,0.05527414345443248
1684099587976192800,10.41419287109375,0.0975064345061779,-0.04131400716304779,-0.12321546078026294
1684099587986210600,10.42421044921875,0.09113280782103537,0.00611556027084589,-0.2315770512998104
1684099587996228600,10.434228515625,0.10581892029941081,0.04848492170572281,-0.28256197312772274
1684099588006247700,10.44424755859375,0.12809826438575983,0.028825989250838756,-0.2944131544411182
1684099588016265700,10.454265625,0.12722060476839542,-0.017617489755153655,-0.18872341347932814
1684099588026284800,10.464284912109376,0.1760427956044674,-0.05760054057538509,0.01691372539997101
1684099588036302800,10.474302734375,0.19023557160794735,-0.025090602114796638,0.14873744004964828
1684099588046320600,10.484320556640625,0.1234919396340847,0.1612915089353919,0.13226853580772877
1684099588056339700,10.494339599609376,0.025360651227831838,0.3283934577152133,0.06762976715862751
1684099588066357500,10.504357421875,0.026783377507328985,0.4194368336871266,0.005063128608465194
1684099588076376600,10.51437646484375,-0.032710137207806106,0.37246436237096786,0.061519759845733636
1684099588086395000,10.524394775390626,-0.20058219357728957,0.28842589672505853,0.17549977476894854
1684099588096413700,10.53441357421875,-0.4257908788889646,0.22083616931587458,0.18671324270069597
1684099588106431700,10.544431640625,-0.5998378245010971,0.15807313141077756,0.09819967746734619
1684099588116449500,10.554449462890625,-0.717333446329832,0.12306085474044084,-0.09199731569588183
1684099588126468600,10.564468505859375,-0.7870943802982568,0.16261369744986295,-0.26353344753086566
1684099588136486700,10.574486572265625,-0.6886714154690504,0.20964315965026617,-0.3129705553948879
1684099588146505500,10.58450537109375,-0.42272856870889663,0.22306056736707686,-0.19818331574201584
1684099588156523800,10.594523681640625,-0.14650982712805272,0.21913141122460364,0.06767477534413337
1684099588166542800,10.60454296875,0.15545359656214713,0.23903408930748699,0.33467151507139203
1684099588176560600,10.614560546875,0.3982940924152732,0.23600655817985533,0.5869505781382321
1684099588186578700,10.62457861328125,0.477398608790338,0.10413549725711345,0.7159919685930013
1684099588196597500,10.634597412109375,0.3625540859922766,-0.2551516958937049,0.5828817212641239
1684099588206615800,10.64461572265625,0.26285014144182206,-0.7383171976476908,0.24392332265377042
1684099588216634600,10.654634521484375,0.2640799754977226,-1.1013087982743979,-0.25769115124344827
1684099588226652700,10.664652587890625,0.37139234922528264,-1.2261682268694043,-0.7059189028680324
1684099588236671700,10.674671630859375,0.5751812298893928,-1.0218500616341828,-1.1412369040369987
1684099588246689800,10.684689697265625,0.7855506579875946,-0.47904374564886093,-1.3434779707372189
1684099588256707600,10.69470751953125,0.8738532108187675,0.35815409746766086,-1.2172393627434968
1684099588266726700,10.7047265625,0.6989367888957262,0.9397139224782586,-0.49929626008272165
1684099588276744700,10.71474462890625,0.9749334121584892,1.2503624646663665,0.3757862002700567
1684099588286763800,10.724763671875,1.2021686348617076,1.6215017159134149,0.8215653896987438
1684099588296781800,10.73478173828125,0.3599707915008068,1.638394690786302,0.8976409136414527
1684099588306800600,10.744800537109375,-1.1363549772143364,1.3410168413206933,0.7907149088829756
1684099588316818700,10.754818603515625,-2.605281282350421,1.0452774067118764,0.6199339793294668
1684099588326836500,10.76483642578125,-3.3336376424759626,0.8483154494583606,0.3420487658411264
1684099588336855600,10.77485546875,-2.9233634816706178,0.7181903554201126,-0.0229658650457859
1684099588346873900,10.784873779296875,-1.9765800591975449,0.32153292429596186,-0.2880003647893667
1684099588356892700,10.794892578125,-0.5291068764567375,-0.42148821325898167,-0.277208921661973
1684099588366910700,10.80491064453125,0.7368740131020546,-1.4270944115787743,-0.10621230353116988
1684099588376929800,10.8149296875,1.272062839820981,-2.3105732366159555,-0.13938918146789073
1684099588386947600,10.824947509765625,1.3768687836855649,-2.8433734146326777,-0.3993436014682054
1684099588396965600,10.834965576171875,1.5399398695141076,-2.9398382311314344,-0.683144176480174
1684099588406984700,10.844984619140625,1.7745085038453339,-2.7513229074448344,-0.8168693408370018
1684099588417002800,10.855002685546875,1.7659060951948164,-2.2278683576613663,-0.53007192209661
1684099588427021800,10.865021728515625,1.3978221398651598,-1.319545598746836,0.4159451921790838
1684099588437039600,10.87503955078125,1.1260977870941162,-0.17597060715109109,1.5610352645128964
1684099588447058700,10.88505859375,1.5180138689100742,0.9452063824146986,2.3855302779227494
1684099588457076700,10.89507666015625,2.337221297305822,1.7519012429788707,2.6185230412393805
1684099588467094800,10.9050947265625,2.8091379675537347,2.12659175696671,2.553010412365198
1684099588477113600,10.915113525390625,2.6149633029311894,2.0421151921644807,2.584038587835431
1684099588487131600,10.925131591796875,1.8379209455698728,1.4876061634257436,2.488065938767791
1684099588497150700,10.935150634765625,0.16562544648647307,0.6429568352594971,1.818341800352931
1684099588507168800,10.945168701171875,-1.829457068607211,-0.2656684137329459,0.8064630976349115
1684099588517185800,10.955185791015625,-2.86530175332427,-0.9334683060869574,-0.31862463563382626
1684099588527204900,10.965204833984375,-2.55720260335803,-1.1999676176860927,-1.275040978848934
1684099588537222700,10.97522265625,-1.8576397915184497,-1.1080272928744554,-2.063058319211006
1684099588547241700,10.98524169921875,-1.2226105343878269,-0.941639629843831,-2.5426304726481437
1684099588557259800,10.995259765625,-0.3284253141582012,-0.8025280962735414,-2.596016025876999
1684099588567278600,11.005278564453125,0.5019681096404791,-0.7446890707671642,-2.3082219973146914
1684099588577296600,11.015296630859375,1.0609762033641337,-0.9011956835135817,-1.8294126449435948
1684099588587314700,11.025314697265625,1.275917761683464,-1.0194847938075662,-0.9595335984528064
1684099588597333800,11.035333740234375,1.5507406649917364,-0.9436959778517484,0.2197562651246786
1684099588607351800,11.045351806640625,1.7789841879546642,-0.5203700277715921,1.6404378870517013
1684099588617370600,11.05537060546875,1.9385610019266604,0.23138240551054476,3.2001147226929665
1684099588627388700,11.065388671875,2.0752865171432493,1.0731631925031542,4.504426804211735
1684099588637407700,11.07540771484375,1.8863795637905596,1.7970318858206271,4.586631624689698
1684099588647425500,11.085425537109375,1.1691028160840273,1.9293492292061447,3.2207997833251953
1684099588657443800,11.09544384765625,0.43971243673563,1.2819728239387274,1.5909060866415499
1684099588667462700,11.105462646484375,0.11494973673820495,0.41190994531363245,0.45594519413411616
1684099588677480700,11.115480712890625,0.1917185036420822,-0.22527064463198185,-0.23905308626890182
1684099588687499800,11.125499755859375,0.3500350884199142,-0.5045362065628171,-0.6639104837000369
1684099588697517600,11.135517578125,0.3137158208042383,-0.5113032164797187,-0.7549807476788759
1684099588707536600,11.14553662109375,0.08051555221676826,-0.3010688129380345,-0.5428700288712978
1684099588717554700,11.1555546875,-0.0910053820490837,0.006487023931741714,-0.30373978571295734
1684099588727572700,11.16557275390625,0.18737550600171088,0.0430193497762084,-0.24915888521969318
1684099588737591800,11.175591796875,0.8587374747514724,-0.12850363031625747,-0.4723959781974554
1684099588747609600,11.185609619140624,1.5272750337302683,-0.3736941964268684,-0.6158569391489028
1684099588757628700,11.195628662109375,1.8820149388402698,-0.5935834402814507,-0.7425982359677553
1684099588767646700,11.205646728515624,1.5945084950476884,-1.0655556401088833,-0.5640490105003119
1684099588777665500,11.21566552734375,0.5851134258389472,-1.484434839913249,-0.14544482824504373
1684099588787683800,11.225683837890625,-0.7764519902527331,-1.5298247182130813,0.09674889413714409
1684099588797701600,11.23570166015625,-2.0039590645104646,-1.1900018117278814,0.055877954566478726
1684099588807720700,11.245720703125,-2.422600071644783,-0.8986965601742267,-0.16890987498462198
1684099588817738800,11.25573876953125,-1.8742688547581434,-0.6886018573641777,-0.4062456359416246
1684099588827757600,11.265757568359374,-0.5566156456291675,-0.4025824372589588,-0.3161854257881641
1684099588837775600,11.275775634765624,0.9286112214446067,-0.0640402182340622,0.015126841983199118
1684099588847794700,11.285794677734375,2.088607771009207,0.27528350655734535,0.17390403001010418
1684099588857812700,11.295812744140624,2.7131132960379123,0.5171376217216253,0.1974006409317255
1684099588867830800,11.305830810546874,2.6742648022055624,0.599877279728651,0.10292699825018643
1684099588877849600,11.315849609375,1.7923825987100601,0.32592122238278387,-0.031932138572633266
1684099588887867600,11.32586767578125,-0.02473579732775688,-0.17513707893639802,-0.2697033683374524
1684099588897886700,11.33588671875,-2.123340646216273,-0.6624205374032258,-0.8073597542136907
1684099588907904500,11.345904541015624,-3.740905022680759,-1.0011813676148653,-1.3496779944211243
1684099588917923600,11.355923583984374,-4.244329176348447,-0.8563774676218628,-1.6942065943792461
1684099588927942000,11.36594189453125,-2.904396330872178,-0.2657107915699482,-1.527630423039198
1684099588937959700,11.375959716796874,-0.8219272087484598,0.34072774637043474,-0.8708774098783731
1684099588947978800,11.385978759765624,0.8142927683472633,0.6803264887109398,-0.22648002042174337
1684099588957996500,11.39599658203125,1.903607761967182,0.7564037662193178,0.3059697367221117
1684099588968015600,11.406015625,2.44817465788424,0.6017077100262046,0.6800146462827921
1684099588978033700,11.41603369140625,2.3241192391484975,0.25345365980416534,0.7971265294909476
1684099588988052500,11.426052490234374,1.507620485189557,-0.2769000018432736,0.6817366477698087
1684099588998070800,11.43607080078125,0.12702888158857822,-0.8610513046517968,0.43072716624736784
1684099589008088600,11.446088623046874,-1.5000702159404753,-1.2254548179030418,0.1298918698042631
1684099589018107600,11.456107666015624,-2.531729139405489,-1.1863929735809564,-0.1937888801753521
1684099589028125700,11.466125732421874,-2.38191091838181,-0.7337929982215166,-0.3629781566232443
1684099589038144500,11.47614453125,-1.2650871555894612,-0.10063771826922893,-0.21628537414371965
1684099589048162800,11.486162841796874,-0.05251929178833961,0.4498015768125653,0.21313070950508117
1684099589058182000,11.496181884765624,0.9234276813268661,0.6968477076619863,0.6027694940388202
1684099589068199700,11.50619970703125,1.6133195785015821,0.7233227498725057,0.7985767282992601
1684099589078217700,11.5162177734375,1.8646417792350052,0.5791822822242975,0.7736626517951488
1684099589088236500,11.526236572265624,1.6960498841583729,0.31114597031623126,0.547933157479763
1684099589098254600,11.536254638671876,1.177721591347456,-0.06009498773962259,0.09442892675697803
1684099589108273700,11.546273681640624,0.45017771664857864,-0.3967068232238292,-0.33943419942855835
1684099589118291700,11.556291748046876,-0.2566331666231155,-0.563899372896552,-0.4993360075712204
1684099589128309800,11.566309814453126,-0.7231319034755229,-0.5385609335005282,-0.4021241720974445
1684099589138328800,11.576328857421874,-0.7696165912747382,-0.38931583618968724,-0.1037766008168459
1684099589148346600,11.5863466796875,-0.45834407196938987,-0.161964585891366,0.22080665096044538
1684099589158365700,11.59636572265625,-0.1127642093926668,0.04690437451601028,0.48497898091673847
1684099589168383500,11.606383544921876,0.07291793669462203,0.22987755390554665,0.703185678511858
1684099589178402600,11.616402587890626,0.0640396337121725,0.37825989690721035,0.8640858500421047
1684099589188420900,11.6264208984375,-0.055040919220447536,0.4779825461581349,0.8981149608939886
1684099589198439700,11.636439697265626,-0.1871434508115053,0.4588134430468082,0.7708294741958379
1684099589208457700,11.646457763671876,-0.2218693117558956,0.3394786230921745,0.4305547322899103
1684099589218475500,11.6564755859375,-0.1614589744567871,0.20344459727108477,0.1094137299209833
1684099589228494600,11.66649462890625,-0.05599193633496761,0.13682926785200833,-0.10594693059325218
1684099589238512600,11.6765126953125,-0.013787702333927154,0.12384849798679351,-0.2302221295595169
1684099589248531500,11.686531494140626,0.03833879074454307,0.08528320500999688,-0.2671872938632965
1684099589258549800,11.6965498046875,0.06526479159295559,0.10320464614778757,-0.2573486214160919
1684099589268567800,11.70656787109375,0.015544775134325027,0.1607555023625493,-0.22650749295055864
1684099589278586600,11.716586669921876,-0.10880699619948864,0.2345101821422577,-0.1398445240199566
1684099589288604700,11.726604736328126,-0.16178864480257032,0.27000936554670335,0.01447451555430889
1684099589298623700,11.736623779296876,-0.15853928761780262,0.25307488961964847,0.16094108806252477
1684099589308641800,11.746641845703126,-0.11228782405257225,0.20447101770937443,0.21864684257805347
1684099589318660900,11.756660888671876,-0.10456921249926089,0.09580459902435541,0.2027729816198349
1684099589328678700,11.7666787109375,-0.11409516573548316,-0.026926000848412512,0.07925298493504523
1684099589338697700,11.77669775390625,-0.09757307000160216,-0.18716683168709278,-0.057336336681246755
1684099589348715800,11.7867158203125,-0.11161679292321204,-0.26951661359369755,-0.2069377000838518
1684099589358733600,11.796733642578126,-0.17907997134327888,-0.2839367686122656,-0.3367313702106476
1684099589368752600,11.806752685546876,-0.2493395024836063,-0.21073826141059399,-0.3785732006400823
1684099589378770700,11.816770751953126,-0.35086101785004137,-0.1135100593239069,-0.31658933041393755
1684099589388789800,11.826789794921876,-0.4076800526589155,0.007646130838990211,-0.2268926928758621
1684099589398807800,11.836807861328126,-0.47942836105227465,0.08835983597636222,-0.08244915062785148
1684099589408825600,11.84682568359375,-0.5180447996944189,0.1329723001629114,0.07725508911609649
1684099589418844700,11.8568447265625,-0.49709904229938984,0.11735855144560337,0.14455284784138203
1684099589428862500,11.866862548828125,-0.3437795351564884,-0.0057034723386168475,0.18198153800368308
1684099589438881500,11.876881591796876,-0.03231704623699188,-0.0896983911037445,0.08194646180272101
1684099589448899800,11.88689990234375,0.2076613381832838,-0.05939560729861259,-0.05783259576559067
1684099589458918700,11.896918701171876,0.3390402316749096,0.07542319751381873,-0.15106149908304214
1684099589468936700,11.906936767578125,0.4032014459401369,0.24517040010541677,-0.08821896620094775
1684099589478954800,11.916954833984375,0.4677203876018524,0.2298088725835085,0.09033259735405444
1684099589488973600,11.9269736328125,0.45755730550587176,0.01725041000843048,0.31676351793706414
1684099589498991600,11.93699169921875,0.33642215813100335,-0.2365004791766405,0.4042424794256687
1684099589509011500,11.947011474609376,0.13667758442163466,-0.4091135925933718,0.33972821393907066
1684099589519029500,11.957029541015626,-0.05711246479749679,-0.4402396754801273,0.18269874636232852
1684099589529048300,11.96704833984375,-0.07999708130061627,-0.36667087366133927,0.06890051774680614
1684099589539066600,11.977066650390626,0.04603168333470821,-0.3004147329434752,0.1127472582578659
1684099589549084400,11.98708447265625,0.21313830828964708,-0.23808745610713958,0.09775777891874313
1684099589559103500,11.997103515625,0.30864743149876595,-0.17829758879393337,-0.01331248603761196
1684099589569121300,12.007121337890625,0.2457370940774679,-0.17497721219956874,-0.1404267078220844
1684099589579140400,12.017140380859376,0.1642120725572109,-0.19152531915754079,-0.22514380338191986
1684099589589158700,12.02715869140625,0.12530220392644403,-0.2462520578622818,-0.25233576169013977
1684099589599177500,12.037177490234376,0.12592530426084994,-0.28233284054696556,-0.3026169191628694
1684099589609195500,12.047195556640625,0.14041151025295256,-0.23421119919568298,-0.31230536948442456
1684099589619214600,12.057214599609376,0.10131167200803756,-0.14840513935536145,-0.2628869663208723
1684099589629232400,12.067232421875,0.014692542219161987,-0.10278174456059933,-0.0896896232753992
1684099589639250400,12.07725048828125,-0.014980126988887786,-0.11523118402808905,0.08520166420638561
1684099589649269200,12.087269287109375,0.05757014543712139,-0.10714520046710968,0.1740729568362236
1684099589659287600,12.09728759765625,0.10459200885295868,-0.053854632045328615,0.20306641160845756
1684099589669306600,12.107306640625,0.12329203314781188,0.03385170845836401,0.246630243524909
1684099589679324400,12.117324462890625,0.13369652278423308,0.12887275588959454,0.2928402060359716
1684099589689343500,12.127343505859375,0.0888444046229124,0.19090192656219004,0.32656653454899787
1684099589699361300,12.137361328125,0.06417465826869011,0.22954525321125982,0.32416707219183444
1684099589709379300,12.14737939453125,0.11437106006741524,0.26404022800922394,0.2816413511514664
1684099589719398400,12.1573984375,0.31108138064742086,0.35717969947755335,0.25866321114599705
1684099589729416400,12.16741650390625,0.391173739016056,0.43784079764485356,0.22699264611899853
1684099589739435500,12.177435546875,0.49375031639337535,0.41315000850260253,0.23647592925727365
1684099589749453600,12.18745361328125,0.6692196960240602,0.21767595171928406,0.27272622328996654
1684099589759472400,12.197472412109375,0.30817864494323727,-0.10347878691405057,0.26048808848559857
1684099589769490400,12.207490478515625,-0.007491232538223266,-0.36792087372243404,0.05524141022861004
1684099589779508500,12.217508544921875,-0.2764157254576683,-0.5557853322848677,-0.13073007419407368
1684099589789527300,12.22752734375,-0.6229670634150505,-0.4702811780005693,-0.25675416265428064
1684099589799545600,12.237545654296875,-0.5328150833249092,-0.3426154598131776,-0.2406476619839668
1684099589809564400,12.247564453125,-0.11799158865213394,-0.315672800090909,-0.0780909554183483
1684099589819582500,12.25758251953125,0.09446107546091079,-0.4156503008857369,0.22456454218924043
1684099589829601500,12.2676015625,0.10817571255862712,-0.6312403862416743,0.37839492146372794
1684099589839619300,12.277619384765625,0.12880232100188732,-0.7908224609106779,0.1624082380056381
1684099589849637600,12.2876376953125,0.20636837576329706,-0.8888774692103266,-0.19061726440191268
1684099589859656400,12.297656494140625,0.16942951494455336,-0.876146290192008,-0.4936491941064596
1684099589869674500,12.307674560546875,0.1691881074041128,-0.691529142987728,-0.5707832871913909
1684099589879693600,12.317693603515625,0.16404197668731213,-0.378572031596303,-0.4555366133332252
1684099589889711400,12.32771142578125,0.09411094684898853,-0.018126316060125828,-0.27113632375001906
1684099589899730400,12.33773046875,-0.0808931533575058,0.25548662693649526,-0.13308920454084872
1684099589909748500,12.34774853515625,-0.31830139502882954,0.3200298262566328,-0.034676176583766934
1684099589919766500,12.3577666015625,-0.5122931042999029,0.15518793136328457,-0.07271861473023891
1684099589929785600,12.36778564453125,-0.5835153429925442,-0.07278758831322192,-0.1440700327605009
1684099589939803400,12.377803466796875,-0.5213058473169804,-0.24201690451055763,-0.18107845168411732
1684099589949822500,12.387822509765625,-0.4104904339045286,-0.2728101021811366,-0.16919570618867874
1684099589959840500,12.397840576171875,-0.31605332384109497,-0.20369769524931908,-0.22216858696341513
1684099589969859300,12.407859375,-0.21226795519590377,-0.0429842784628272,-0.2793500253438949
1684099589979877400,12.41787744140625,-0.1414817698329687,0.141119366261363,-0.30997838784158227
1684099589989895400,12.4278955078125,-0.14925357287824154,0.3307441124945879,-0.2175859353482723
1684099589999914500,12.43791455078125,-0.22698212472498416,0.4640913834497332,-0.10865677407383918
1684099590009932500,12.4479326171875,-0.36658582572638987,0.4920540338695049,0.0014081132322549819
1684099590019951400,12.457951416015625,-0.4817313772976398,0.5455985770523548,0.08867781588435172
