time,seconds_elapsed,z,y,x
1684109829320818000,0.03281787109375,-0.6629623891949653,1.1335391891412436,-1.2764642896503209
1684109829330814000,0.04281396484375,-0.5937082357048988,1.1836644253998994,-0.5953334988191723
1684109829340809700,0.052809814453125,-0.20233809733390806,1.1011365104474127,0.21918869436979294
1684109829350806000,0.062805908203125,-0.9305682007312774,0.8970470394015312,0.5186778369009495
1684109829360802000,0.072802001953125,-2.1833406491488216,1.9945906399235127,1.087858072809875
1684109829370796800,0.082796875,-2.399061375147104,4.328301591020822,2.8501646822080016
1684109829380792800,0.092792724609375,-1.822578999531269,4.790701660382747,3.6127038824424145
1684109829390788900,0.102788818359375,-0.8365864332199097,4.069850853581726,2.837198233129084
1684109829400785000,0.112784912109375,0.4377344146609306,2.381830108230561,1.6697855620890856
1684109829410781000,0.122781005859375,1.8977531907200813,1.891295100621879,4.703598838730156
1684109829420777000,0.13277685546875,2.3041256679117676,3.74697382120043,-0.0218681329369545
1684109829430773000,0.14277294921875,2.4567636225312945,3.2743259140685197,-4.851398413407802
1684109829440769000,0.15276904296875,2.521051678046584,2.189221085489541,-4.229727819544077
1684109829450764000,0.162763916015625,3.0179981601327657,3.8026340413630004,-0.8030588421493768
1684109829460759800,0.172759765625,4.1660511739254,6.133304017329215,5.690177388235926
1684109829470755800,0.182755859375,3.9633793145924803,5.679037570062279,4.818423195523024
1684109829480751900,0.192751953125,3.928275267985463,4.791707914815843,4.763834111723304
1684109829490748000,0.202747802734375,2.9544904413402078,4.340620389845967,5.576086314153671
1684109829500744000,0.212743896484375,1.8068612059175968,3.8967143008127807,6.226350549817085
1684109829510739700,0.22273974609375,1.3124632392704485,3.752656835272908,6.340943728202581
1684109829520736000,0.232736083984375,0.9070862028568982,3.441868592353165,4.120973722575605
1684109829530731000,0.24273095703125,0.7208329788833856,3.196194918900728,1.5279901962623
1684109829540726800,0.252726806640625,0.744820003670454,3.7300492821455,0.9713140526175499
1684109829550722800,0.262722900390625,0.8506453537106513,4.488050838950276,1.2353402521014212
1684109829560719000,0.272718994140625,1.3664005811631679,4.832760348433256,1.160636016511917
1684109829570715000,0.28271484375,1.8798580530673263,4.831882688815892,1.3315087160021066
1684109829580711000,0.2927109375,1.7944073825359343,5.588761086809635,3.046968818551302
1684109829590707000,0.30270703125,1.7258710219264028,6.529558420610427,4.953057875940203
1684109829600703000,0.312702880859375,1.792914513629675,5.361912817597389,5.659236306527257
1684109829610699000,0.322698974609375,1.4606868845790624,4.252096010957658,4.050332206380367
1684109829620694000,0.332694091796875,0.007025953114032745,4.3121281625941394,0.7754010198950767
1684109829630689800,0.342689697265625,-2.3995400985747573,3.419514721725881,0.07248714406192303
1684109829640685800,0.352685791015625,-3.902545491184294,2.415738076920807,1.8844179083287715
1684109829650681900,0.362681884765625,-4.193864186741411,2.7370313472419974,4.204548370102048
1684109829660678000,0.372677978515625,-3.770264972677827,2.682949336181581,6.256878374549746
1684109829670674000,0.382673828125,-3.6736060949116944,1.5731649705067277,8.056963802722096
1684109829680670000,0.392669921875,-2.194397465214133,2.440043666137755,6.227406196349859
1684109829690666000,0.402666015625,-2.281676520216465,2.9383772186681627,0.5171902286916971
1684109829700661000,0.412660888671875,-1.5982605410575865,1.3383441149801014,1.117327036139369
1684109829710656800,0.42265673828125,-2.5777117229014634,1.721201276549697,6.577425502678752
1684109829720652800,0.43265283203125,-5.3422939248919485,1.9477672216892241,10.787035832345484
1684109829730649000,0.442649169921875,-9.748505269545316,-0.9110171125650406,6.820692407250404
1684109829740645000,0.45264501953125,-12.319757441043853,-3.8585494053304195,1.5019389324218033
1684109829750641400,0.462641357421875,-10.85776765717268,-3.029205782845616,-0.10944646314680576
1684109829760637200,0.47263720703125,-7.236651043432951,-1.3364590318858622,0.4260235186010599
1684109829770633200,0.48263330078125,-5.4763551893353455,-1.7103700859338045,1.9749001432865856
1684109829780629500,0.49262939453125,-3.997783688497543,-2.0078291839420794,2.54629250228703
1684109829790624300,0.502624267578125,-4.136785331952572,-2.013894183069467,-1.935359575536847
1684109829800620300,0.512620361328125,-4.693551784229278,-0.8964730389058589,-1.8457868566393851
1684109829810616300,0.5226162109375,-5.286207880532741,-0.4310492378085851,-2.0071628289878367
1684109829820612000,0.532612060546875,-7.034807451617717,0.28518881449997424,-2.7154239110678433
1684109829830608400,0.5426083984375,-8.19239401743114,0.7657195838361978,0.31045769579112525
1684109829840604400,0.5526044921875,-8.816950980386137,0.11683949600756167,2.5724738222479817
1684109829850600200,0.56260009765625,-9.217387637788057,0.06978373032212257,-1.156518059799075
1684109829860596200,0.57259619140625,-7.275785952991247,-0.3964776906430721,-2.701343363267183
1684109829870592300,0.58259228515625,-3.4397803879022595,-1.5727824009299278,-1.5220301188141108
1684109829880587300,0.592587158203125,0.021535247720777986,-2.5163936231076716,-0.5913152030885219
1684109829890583300,0.602583251953125,2.358959081861377,-2.6284102290034292,1.1730752268463374
1684109829900579300,0.612579345703125,-0.6740776574492454,-1.3399842834025621,-0.5203098220169544
1684109829910575400,0.622575439453125,-4.94916612919867,-0.5863216325849294,-3.256613439506292
1684109829920571400,0.6325712890625,-5.097923442992568,1.606044034540653,-4.925969378006458
1684109829930567200,0.642567138671875,-5.226392001995444,2.3586995541423557,-5.7130707725673915
1684109829940563200,0.652563232421875,-6.438931224223971,3.309754662585258,-6.0520361854404205
1684109829950559500,0.6625595703125,-6.199108322626352,5.11183097231388,-8.650850902125239
1684109829960555300,0.67255517578125,-1.8333204660370945,6.434649016860127,-11.26489650568962
1684109829970550300,0.68255029296875,0.8503247434541582,6.939411725655198,-10.998246971964836
1684109829980546300,0.69254638671875,2.7356492452338337,7.885790658980608,-8.889068122091889
1684109829990542000,0.7025419921875,4.668372919309139,8.526561674633621,-4.627945047330856
1684109830000538400,0.712538330078125,7.779118921244144,8.920966066133975,-1.1909331012286246
1684109830010534400,0.722534423828125,10.975201611942053,8.849979389762877,-0.9485231788124888
1684109830020530200,0.7325302734375,13.721881662017106,7.467977334842085,0.8759166461545973
1684109830030526500,0.7425263671875,14.952178659254312,5.989062135133147,4.454107945077121
1684109830040522200,0.752522216796875,13.902205495941638,5.730576034119725,6.224190156912803
1684109830050518300,0.762518310546875,9.704560913878678,5.922789043280482,6.3222799442648885
1684109830060513300,0.77251318359375,3.155062113523483,5.1965135810822245,7.408415138804912
1684109830070509300,0.78250927734375,-1.9847136812925337,4.467597248986364,9.30744258724451
1684109830080505300,0.79250537109375,-5.503779202833772,3.6246570628255603,11.451494597578048
1684109830090501400,0.80250146484375,-7.017593281966447,3.1658523876070976,13.251957626891135
1684109830100497200,0.8124970703125,-11.14979011708498,2.6278654546022415,15.308656347942351
1684109830110493200,0.8224931640625,-4.813687691433728,2.002330586525798,21.549091537213325
1684109830120489500,0.832489501953125,1.8937115141138434,-0.1713584371805191,24.784254192411897
1684109830130485200,0.8424853515625,6.743568251037598,-5.124149186617136,22.43391739294529
1684109830140480300,0.852480224609375,21.25077026941776,-6.490497745332122,24.141859959471223
1684109830150476300,0.862476318359375,34.81739941040277,-6.417099916166067,23.42965978437662
1684109830160472300,0.872472412109375,17.7293087926507,-7.898615653762221,16.762313187754152
1684109830170468400,0.88246826171875,2.749466758184135,-6.169093708112835,17.538230924999713
1684109830180464400,0.89246435546875,0.237403127104789,-5.1287902904212475,17.40112196342349
1684109830190460200,0.902460205078125,4.9436494116038086,-5.00006337274313,10.338714557218552
1684109830200456400,0.91245654296875,8.44762023986578,-2.2113000846982,2.1922405794411897
1684109830210452200,0.9224521484375,6.635444560927152,-1.4385148002594708,-6.02921002112627
1684109830220448300,0.9324482421875,4.974398185610771,-1.013241223242879,-9.273628580448031
1684109830230443300,0.942443359375,3.4653666645795105,-1.7758628410637378,-5.360767154693603
1684109830240439300,0.952439208984375,-0.6396060635268688,-3.0893624376446005,0.22021789128705857
1684109830250435300,0.962435302734375,-3.300653656762838,-1.092611697077751,-2.3826490233980118
1684109830260431400,0.972431396484375,-5.664630859047175,2.69073779810071,-9.839094472008943
1684109830270427100,0.98242724609375,-3.283822933471203,4.63289711678028,-12.37994566002488
1684109830280423400,0.99242333984375,3.3490281038314103,0.44189737955927844,-2.346344807220995
1684109830290419500,1.00241943359375,-1.1552011319816111,-2.7922277492851015,0.3696375049145892
1684109830300415200,1.012415283203125,1.3435592192798853,2.8247990625441073,-5.772102222728729
1684109830310411300,1.022411376953125,1.6447276932001114,1.1859662726014852,-3.65349094312191
1684109830320407300,1.0324072265625,2.104364143067598,1.0926987908393144,-2.9478064335316416
1684109830330402300,1.04240234375,1.9430114054642618,0.9383148693352937,-2.7586802844703198
1684109830340398300,1.0523984375,1.1618727187000215,0.47223523467779155,-3.7563206184774636
1684109830350394400,1.062394287109375,0.21285832230448723,-0.9323848947644233,-3.3015944447442886
1684109830360390100,1.07239013671875,-0.6247516087442636,-2.39910638333261,-4.604617655496299
1684109830370386400,1.082386474609375,-0.5082108034223318,-2.042009685963392,-2.7877313146486875
1684109830380382200,1.09238232421875,-1.6585937214672564,-0.008745616513490677,-1.940560943572223
1684109830390378200,1.102378173828125,-2.2900613405935464,3.6101001296848056,-0.29060247357916086
1684109830400374300,1.112374267578125,-0.5601483497999609,3.422132503008842,0.21888488911762832
1684109830410369300,1.122369384765625,1.7464089291729032,3.4159108520150183,0.520878050358966
1684109830420365300,1.132365234375,1.6688497425436972,3.287254076963663,0.3065383303903043
1684109830430361300,1.142361328125,0.3139776866108179,3.3831285263538358,-1.0580659419406204
1684109830440357000,1.152357177734375,-0.09607537878975271,2.3715391619712114,-0.27490809737369415
1684109830450353400,1.162353515625,-0.0005703472338616848,-2.850868154302239,-0.7373068515613674
1684109830460349400,1.172349365234375,3.534295823898911,4.117069408613443,3.0954014255478977
1684109830470345200,1.18234521484375,-0.22719605973660945,5.16259611391127,1.1288596530228852
1684109830480341200,1.19234130859375,-2.8390374312549826,-0.10890753396451473,-2.7113223209679127
1684109830490337300,1.202337158203125,-1.1817593954961747,-2.914592146193981,-0.3680693422824144
1684109830500333300,1.212333251953125,-1.7418974430978298,-4.184977408191561,1.5035262016132473
1684109830510328300,1.222328369140625,-2.1885738736271856,-3.1344261527299877,1.8314792220845817
1684109830520324400,1.232324462890625,0.9999591323435306,-0.6933411608457565,0.2946954785138368
1684109830530320100,1.242320068359375,0.2694359495729208,1.5548568681389092,-0.3863929344803095
1684109830540316400,1.25231640625,-0.3490951772212982,2.484325583195686,1.4359313596375285
1684109830550312200,1.262312255859375,0.5617155625840649,1.841441520911455,3.6791596373856064
1684109830560308200,1.27230810546875,0.13418400490707716,2.14686414514482,2.676173266175389
1684109830570304500,1.282304443359375,-1.745723723387718,1.3139607843518257,0.900877995866537
1684109830580300300,1.29230029296875,1.2015630701839923,1.0577741924524307,-1.5868302155047653
1684109830590296300,1.30229638671875,1.9149737901121378,1.5091694681972265,-1.952344320346415
1684109830600291300,1.312291259765625,1.1227116517871618,0.5589607474505901,-2.673543794454634
1684109830610287000,1.322287109375,0.23397655018959193,-0.24127777658104896,-2.0908178482741118
1684109830620283400,1.332283447265625,0.03417399921528995,0.7820616468280553,0.6045747898951173
1684109830630279400,1.342279541015625,-0.7419617646951228,5.132200391125679,4.547765595200658
1684109830640275200,1.352275146484375,0.6554191342085599,-0.6340186187833547,2.58985925681293
1684109830650271200,1.362271240234375,-0.1682732575815171,-2.408110358521342,3.126260966452956
1684109830660267300,1.372267333984375,-0.3765389913987368,-1.1993623452693223,0.7986635297998785
1684109830670263300,1.38226318359375,-0.4363216252535581,0.556775220105052,-0.6584516337722539
1684109830680259300,1.39225927734375,0.45856041813381015,0.8635428292065859,-2.520137485811114
1684109830690254300,1.40225439453125,0.9525093989044428,-5.211860203295946,-5.10588229304254
1684109830700250400,1.41225048828125,0.32559155203700063,-4.5696687994509935,-2.8858479900076985
1684109830710246400,1.422246337890625,-0.9263356777280568,1.070578728967905,0.8963838993176817
1684109830720242200,1.4322421875,-0.09015490269958973,2.0784563793510196,2.803005163887143
1684109830730238200,1.44223828125,1.037369190870598,1.0323568426012992,1.8762196965649722
1684109830740234200,1.452234130859375,-0.04135886921808123,1.54581022285223,0.60223845590204
1684109830750230000,1.46222998046875,0.12198811094239354,1.5617881287068127,-0.5680903948456049
1684109830760226300,1.472226318359375,0.3926199923016131,-0.8053577667415142,-1.4102905762940645
1684109830770222000,1.48222216796875,0.29882629470825195,-1.7917226734966039,-1.925610919460654
1684109830780217000,1.492217041015625,0.44524844355285165,-2.063839240455627,-1.1112436245724557
1684109830790213000,1.502213134765625,0.4754840073406696,-3.3913778837829827,-1.3203519466936589
1684109830800209200,1.512209228515625,-0.3904840031862259,-5.93566079981327,-1.8951158279538154
1684109830810205200,1.522205078125,-1.929248837571591,-8.153064462083577,-1.3189116847574711
1684109830820201200,1.532201171875,-1.8149479201309382,-8.751808353868126,0.0928396117389202
1684109830830197000,1.542197021484375,1.3865604488775134,-7.894172118356823,1.017463224852085
1684109830840193300,1.552193359375,3.8796889317318795,-11.080648191797733,1.3707114300996064
1684109830850189300,1.562189208984375,-4.7532203632503744,-12.000214521521329,0.781806795284152
1684109830860185000,1.57218505859375,-2.0727116982191798,-4.809650106480717,-0.20307254908829928
1684109830870181000,1.58218115234375,0.4431856658041477,-5.004862297457456,1.7495815678596496
1684109830880176000,1.592176025390625,-1.254018649086356,-6.694114192038774,2.1329402492105958
1684109830890172200,1.602172119140625,-1.906922001081705,-1.3525485814213751,1.461140765826404
1684109830900168200,1.612168212890625,1.656678827756643,2.924413282984495,1.4418655719920992
1684109830910164200,1.622164306640625,1.093281559163332,0.8303297109127045,-1.1727280208438635
1684109830920160000,1.632159912109375,1.0595943936169148,-1.9901655169576404,-2.646503227315843
1684109830930156300,1.64215625,1.5300830768883227,-2.590755913391709,-3.9438732346117495
1684109830940152000,1.652152099609375,-5.522242495763302,-3.1674095539212224,0.06144581782668829
1684109830950148000,1.662148193359375,-11.162371366238593,-0.4025046958476305,4.07111225181967
1684109830960144100,1.67214404296875,-2.6693060107544064,4.929543144840002,3.6828506008580324
1684109830970140200,1.68214013671875,3.2170448147058486,9.140484430849552,1.7399278965905307
1684109830980135200,1.69213525390625,2.0753017147123813,8.6571327588737,0.06461509551256894
1684109830990131200,1.702131103515625,-0.25427783566862344,7.12525519978404,-1.0261267160400747
1684109831000127000,1.712126953125,-3.444664652812481,11.902025365447997,0.19771569823026655
1684109831010123300,1.722123291015625,-3.1791689652979374,11.809874320495128,0.6714098995447159
1684109831020119300,1.732119384765625,0.45261283484101295,8.296165942072868,-2.0812550701588393
1684109831030115000,1.742114990234375,2.9089924264907836,3.587607727369666,-2.4984336035251618
1684109831040111000,1.752111083984375,2.5291163265585896,0.860260154274106,-2.1808587692052126
1684109831050107100,1.762107177734375,1.5489982052385807,-2.0818062743008134,-2.7942887734681365
1684109831060103200,1.772103271484375,-0.013733341798186301,-3.325882206043601,-2.1208932530641555
1684109831070099200,1.78209912109375,-1.5358558150708674,0.6708774001032114,-0.9341425520867108
1684109831080094200,1.79209423828125,-1.409872058621049,6.090128307947516,-2.087020209556818
1684109831090090200,1.80209033203125,-1.2566963438630103,8.670558057636022,-2.0680548123240468
1684109831100086300,1.812086181640625,0.6396902346789837,8.754719272878766,0.6550047081887722
1684109831110082000,1.82208203125,3.313168270421028,6.553039833962917,0.31803485304713247
1684109831120078000,1.832078125,3.8645027607768774,3.4641280626952646,-1.432089735648036
1684109831130074400,1.842074462890625,0.10790975509881973,1.1609148334532975,-0.8388163842290639
1684109831140070100,1.852070068359375,-2.637624632072449,-0.2709995456278324,0.10407412245869636
1684109831150066200,1.862066162109375,-4.217858518052101,0.34741000061333177,-0.4356511786460876
1684109831160062000,1.87206201171875,-3.0847026291400192,3.3501106383711097,-1.3050479945778846
1684109831170058200,1.882058349609375,-0.1800818418622017,3.2399358609497546,-0.5260995113343
1684109831180053200,1.89205322265625,1.9253905547082424,0.6049480071216822,0.9084270960718392
1684109831190049300,1.90204931640625,3.005174918916821,-1.1853627537503837,1.613271063184738
1684109831200045000,1.912045166015625,3.428791376376152,-1.9412927649781107,1.6761574352085589
1684109831210041000,1.922041015625,3.158231391209364,-2.4092995683059093,1.6069249090284108
1684109831220037000,1.932037109375,2.262948438870907,-2.1231737652167677,1.3687106116712093
1684109831230033200,1.942033203125,1.1828542780607938,-1.3085054415553807,0.9203647866249084
1684109831240029200,1.952029296875,-0.8592840027183294,-0.6814324041262269,-1.5153537097901104
1684109831250025200,1.962025146484375,-3.9362808797866102,-1.0949369251549244,-5.740434580311179
1684109831260021200,1.972021240234375,-3.3795033215939996,-2.264596206077933,-6.820397223696112
1684109831270017000,1.98201708984375,-0.43477322676777835,-1.8391098630934952,-3.6359547019094225
1684109831280012000,1.992011962890625,0.3338274654626846,-0.5494163817748428,-0.23615911839306353
1684109831290008000,2.002008056640625,0.5868769283801317,0.6599559008553624,1.6783388709008693
1684109831300004400,2.01200439453125,1.9749831453949211,1.3247156948611138,2.8294460115671156
1684109831310000000,2.022000244140625,4.282772011989355,-0.5443517918616533,5.437034986338019
1684109831319996200,2.03199609375,3.706227092531323,-5.19118917118907,5.3840457389503715
1684109831329992000,2.041991943359375,-3.944074894663691,-3.3551892568096515,3.61068874322772
1684109831339988200,2.05198828125,-7.034885193029045,0.7156424245029688,-0.7765233019232749
1684109831349984300,2.061984375,-2.371649636608362,2.1528131166771054,-4.2875937330573795
1684109831359980000,2.07197998046875,2.8785125325530765,2.940275161243975,-2.65261644949913
1684109831369976000,2.08197607421875,4.071825076264143,2.6607059401914475,0.3901099091768265
1684109831379971300,2.091971435546875,3.245954682847857,1.7015359143540263,1.2004910570383072
1684109831389967000,2.101967041015625,1.0883452718049287,0.41427872027158735,0.9464163427263498
1684109831399963100,2.111963134765625,-0.7738847701132298,-0.40902708335369825,0.13928046039640904
1684109831409959200,2.121959228515625,-1.6827490885585545,-0.5583654119059444,-0.5918418573111295
1684109831419955200,2.131955078125,-1.4442606504350899,-0.47056554789990185,-0.7765478518426417
1684109831429951200,2.141951171875,-0.7995978880405425,-0.007574234646558761,-0.4178589168459177
1684109831439947000,2.151947021484375,-0.3069230919241905,0.38586423443108797,-0.0069254153490066524
1684109831449943000,2.161943115234375,-0.017207155388593673,0.19292875621467828,0.029092238971590995
1684109831459939300,2.171939208984375,0.32909751433134077,0.12768208480030296,0.04978723647594452
1684109831469935000,2.18193505859375,0.6859656636416912,0.6278714943304657,-0.23463643887042998
1684109831479930000,2.19193017578125,1.150247893488407,1.2362085593685508,-0.5112812969088554
1684109831489926100,2.201926025390625,1.0954770233809947,1.3189794892966746,-0.8621814777255058
1684109831499922200,2.211922119140625,0.26787819873690605,1.1010127379372716,-1.0083172108441592
1684109831509918200,2.221918212890625,-0.44796354773044583,0.8532759944751859,-0.7988198894053697
1684109831519914200,2.231914306640625,-0.4421750274568796,0.5661597190439701,-0.24333120197951794
1684109831529910000,2.241909912109375,-0.11333470275700092,0.3459758761569857,0.5950596503138542
1684109831539906300,2.25190625,0.0014531214177608488,0.1598199750781059,1.1635428438693285
1684109831549902000,2.261902099609375,-0.32590427124798294,0.02027501852661371,1.0931962189674376
1684109831559898000,2.271898193359375,-0.5928869824498891,-0.048314241313934324,0.6220698223143816
1684109831569893000,2.28189306640625,-0.0917418796300888,-0.0027548516660928723,0.3296796981334686
1684109831579889200,2.29188916015625,0.7943500505149363,0.33046237294375896,0.3682306703239679
1684109831589885200,2.30188525390625,0.9938432798117398,0.9896163097664713,0.5419540830701589
1684109831599881200,2.311881103515625,0.17021628140807152,1.803891250196099,0.876841871240735
1684109831609877000,2.321876953125,-0.9447399339467286,2.710029066286981,1.1396925972044467
1684109831619873000,2.331873046875,-2.015662946307659,3.611058161062002,1.1850497422784567
1684109831629869300,2.341869384765625,-2.2349264594793317,4.023905387225747,1.193594283261895
1684109831639865000,2.351864990234375,0.0854202753931284,3.259421774925291,0.9412930083632468
1684109831649861000,2.361861083984375,2.4908172833025453,0.6537839342221617,0.06903671134710311
1684109831659856100,2.371856201171875,2.4982833813995122,-2.0426956224009394,-1.2535060233891009
1684109831669852200,2.38185205078125,2.0332675765812396,-3.005601035374403,-2.0214134726583954
1684109831679848200,2.39184814453125,2.863793102326989,-1.8558529081016777,-1.8572703736841678
1684109831689844200,2.40184423828125,2.610072023758292,0.34057518615722654,-0.7530351665690541
1684109831699840000,2.411840087890625,1.0751724864989518,1.852171004718542,0.8003986830294132
1684109831709836300,2.421836181640625,0.7009259168863297,2.637183902567625,1.8424229331642388
1684109831719832000,2.43183203125,0.743850281855464,2.6887349338456987,2.2065315551221367
1684109831729828000,2.441828125,0.603829232224822,2.327019052243233,2.446404725602269
1684109831739824000,2.45182421875,0.5231085128247738,1.474512873096764,1.9377315653651952
1684109831749819400,2.4618193359375,0.278335295343399,-0.6251382699742913,-0.3691986385732889
1684109831759814400,2.471814453125,0.13038637532293795,-2.193606314836442,-2.374762215670943
1684109831769810400,2.481810546875,0.8237766360074281,-2.24265150077343,-3.804500127495825
1684109831779806500,2.491806396484375,1.1549568018317222,-1.0239522946104407,-4.365927849581837
1684109831789802200,2.50180224609375,0.6049316405087709,0.5012766202449799,-3.4913960088491436
1684109831799798500,2.511798583984375,0.7723521537184714,1.7154858215123414,-2.3280244298934933
1684109831809794300,2.521794189453125,1.654743475779891,1.873467475247383,-2.1473498828351496
1684109831819790300,2.531790283203125,1.068075806236267,1.534427828094363,-1.3880781599640846
1684109831829786400,2.541786376953125,-0.06961421897411346,1.0146300472527743,-0.7567422043934464
1684109831839782400,2.551782470703125,0.12960194694697857,0.20530513044595716,-0.5259601028636097
1684109831849777400,2.56177734375,-0.10412556038498878,-0.7242161915808916,-0.04068447708785534
1684109831859773400,2.5717734375,-0.678017334985733,-1.1618290256887673,0.7790384996145964
1684109831869769200,2.581769287109375,-1.0215805970430374,-1.4137620517969132,1.2980828317403792
1684109831879765500,2.591765625,-0.27223522490262986,-1.438788941025734,1.0431450708582997
1684109831889761500,2.601761474609375,0.9544897590667009,-1.0034139489725231,-0.2860594598546624
1684109831899757300,2.61175732421875,1.771892183867097,-0.4319847650930285,-1.4487278589770196
1684109831909753300,2.62175341796875,2.4320541286885735,-0.7244903323471545,-2.392340542459488
1684109831919749400,2.631749267578125,2.079181771016121,-1.3575094186991452,-2.778015976320207
1684109831929745400,2.641745361328125,0.1451940683543682,-1.606967286865413,-2.166957669624686
1684109831939741400,2.651741455078125,-2.098092807713151,-1.8870473800495267,-0.6093924193099141
1684109831949736400,2.661736328125,-1.821902123183012,-2.206981344716251,0.700126875463128
1684109831959732200,2.671732177734375,-1.1050444776713848,-2.3772440956145524,1.38461779037714
1684109831969728500,2.681728515625,-1.8030588910251855,-2.2431685103848573,1.7743989059910177
1684109831979724300,2.691724365234375,-1.7474544927030802,-1.74639183190763,1.751658374133706
1684109831989720300,2.70172021484375,-0.2562754392266273,-1.1056088335558771,1.140986436407268
1684109831999716600,2.711716552734375,0.27095746005177496,-0.5871463929712772,0.1458402573034167
1684109832009712400,2.72171240234375,-1.6829741294860838,-0.5340443328589201,-1.1758549206927418
1684109832019708400,2.73170849609375,-4.257259969592094,-1.1912550266593693,-3.0058085406452415
1684109832029704400,2.741704345703125,-4.402774355942011,-2.191053123222291,-4.155433041538298
1684109832039699200,2.75169921875,-1.447203718149662,-2.296584458751976,-1.9968559545069933
1684109832049695500,2.761695556640625,-0.09107552467584609,-1.1304682572633027,1.9158911972180008
1684109832059691500,2.77169140625,0.23510405638217924,-1.0316714906856417,3.4516827148810028
1684109832069687300,2.781687255859375,0.032629180926084515,-1.525662630097568,3.2961621905624865
1684109832079683300,2.791683349609375,-1.2731260851383208,-1.7007845114648341,3.923521351456642
1684109832089679400,2.801679443359375,-3.3937533807426687,-1.151601938445866,3.919866336080432
1684109832099675400,2.81167529296875,-3.98173154836297,-0.3025876930683851,2.589697051988542
1684109832109671400,2.82167138671875,-3.3280274013787507,0.11917319965213537,0.4788774491712451
1684109832119667200,2.831667236328125,-1.7907406767219305,0.8492448392629622,-0.2791092023253441
1684109832129662500,2.841662353515625,1.3566788130939007,1.6191279725193977,-0.7565063498109579
1684109832139658500,2.851658447265625,3.4040415505230426,1.9980957254350185,-0.7646472784295678
1684109832149654300,2.861654296875,3.136183225530386,2.134613150858879,-0.2872670820787549
1684109832159650300,2.871650390625,1.8994120638430116,2.1117080760896205,-0.012491232782602309
1684109832169646600,2.881646484375,0.5287894810706377,1.5756740307182073,-0.7201748072355986
1684109832179642400,2.891642333984375,0.7108399926573038,0.22365648743361233,-1.8809113615125417
1684109832189638400,2.901638427734375,3.4979970145493744,-1.7927882569015026,-2.5341449683755637
1684109832199634400,2.911634521484375,5.037050748878717,-3.4120804800719022,-3.553005785065889
1684109832209630500,2.92163037109375,3.0274370196074245,-4.382786629924178,-5.539274294584989
1684109832219626500,2.93162646484375,0.6086281569391488,-4.678244324982166,-7.946371092149615
1684109832229621500,2.94162158203125,-0.8210346438229084,-2.972532001726329,-8.296786704319715
1684109832239617300,2.9516171875,-0.6896785466849803,0.4304401659995317,-6.35571634992063
1684109832249613600,2.961613525390625,1.7800912724137306,3.356960650396347,-4.450158330668509
1684109832259609300,2.971609375,2.188135482209921,4.511625191283226,-2.632342307755351
1684109832269605400,2.98160546875,1.6287112089008091,4.206956308026611,-0.9351926456615328
1684109832279601400,2.991601318359375,1.5667752694696186,2.876590624579787,1.587028660686314
1684109832289597400,3.001597412109375,1.4054793766200542,1.1859417226821183,2.8981548061341047
1684109832299593500,3.011593505859375,0.8030880682438611,-0.2045323925077915,3.295601634070277
1684109832309589500,3.021589599609375,-0.37139234922528264,-0.8765443495988845,3.4552544358879325
1684109832319584300,3.031584228515625,-1.3375427354693412,-1.034052832864225,3.0535996348679064
1684109832329580300,3.041580322265625,-1.0716337909787892,-1.0715224395588039,1.8201818752616643
1684109832339576600,3.05157666015625,-0.29665128875672814,-0.664568947608769,0.6117801912292837
1684109832349572400,3.061572265625,-0.014286884027719497,0.2163011562347412,-0.22690321426987647
1684109832359568400,3.071568359375,0.3250853560805321,0.897873553353548,-0.5929302370697259
1684109832369564400,3.081564453125,0.09325169967114925,1.2712208360388875,-0.5511144178643822
1684109832379560400,3.091560546875,-0.2301344512760639,1.15497959818542,-0.3241340467050671
1684109832389556500,3.101556396484375,-0.4743219778239727,0.5211754989355802,0.039485038170218464
1684109832399552300,3.11155224609375,-0.7496867329239845,-0.30889731460660697,0.5033969733998179
1684109832409547300,3.12154736328125,-0.7976268802285194,-0.7638304090887308,0.9843597044125199
1684109832419543600,3.13154345703125,-0.7359586518228054,-0.592031242403388,1.467440742753446
1684109832429539300,3.141539306640625,-0.6048726037979125,-0.0547530421897769,1.6962281633347271
1684109832439535400,3.151535400390625,-0.6120207219868898,0.4482327200606465,1.4745041052684187
1684109832449531400,3.161531494140625,-0.39547231299281116,0.5421624651238321,0.8936039132103324
1684109832459527400,3.17152734375,-0.03796645030081272,0.3424704983845353,0.395286142770946
1684109832469523500,3.1815234375,0.0961246247589588,0.23755203405618666,0.20241846909373998
1684109832479519500,3.19151953125,0.022764789515733717,0.4386021374061703,0.2658737270466983
1684109832489515300,3.201515380859375,-0.1532861893951893,0.8509674252718686,0.5402424568466841
1684109832499511600,3.211511474609375,-0.36013913380503654,1.3050816045865417,0.7378760297514497
1684109832509506600,3.221506591796875,-0.7736480387479067,1.5918118033096194,0.6294447349965572
1684109832519502300,3.23150244140625,-0.7899965314805507,1.41597768201977,0.010063859505206345
1684109832529498400,3.241498291015625,-0.34629473284780976,0.8752855817094445,-0.7743021187424659
1684109832539494400,3.251494384765625,0.06104512807130813,0.41956513624191283,-1.6376213683262466
1684109832549490400,3.261490478515625,0.3350374257743358,0.2795356110438704,-2.4046159405343235
1684109832559486500,3.271486572265625,0.3704886783838272,0.443899367031455,-2.7971523462057113
1684109832569482200,3.281482177734375,0.49617900484502314,0.5942345976665616,-2.8118057254582642
1684109832579478500,3.291478515625,0.7830769613504409,0.6308861659765244,-2.1533416705958546
1684109832589474600,3.301474609375,0.8688058643013239,0.6730889386728406,-0.9587922785662114
1684109832599469300,3.31146923828125,0.6601239508986473,0.48164340675324196,0.10423355080410837
1684109832609465300,3.32146533203125,0.7067138526380061,0.1542792920857668,0.7116457560822367
1684109832619461400,3.33146142578125,1.3910533763825892,-0.18213614404350517,1.2576197423182427
1684109832629457400,3.34145751953125,2.132151729181409,-0.3987337990067899,1.7142178474031389
1684109832639453400,3.351453369140625,2.50835820069015,-0.40958822436779735,2.228300465468317
1684109832649449500,3.361449462890625,2.363272268885374,-0.41766514783948655,2.7813670403137802
1684109832659445500,3.371445556640625,1.9622966823011636,-0.3895896846950054,3.2356448857575653
1684109832669441500,3.381441650390625,1.3754589168876408,-0.15879589272737502,3.4796196463376283
1684109832679437300,3.391437255859375,0.3526549155294895,0.21073343910500406,3.302638108578324
1684109832689432300,3.401432373046875,-0.39038112733364105,0.5997980770125985,2.7857173444777725
1684109832699428400,3.411428466796875,-0.6656091043114661,0.7279094931408763,2.03517867089957
1684109832709424400,3.42142431640625,-0.8893079695820808,0.47616819021254775,1.0704166702739895
1684109832719420400,3.43142041015625,-1.072626309147477,-0.06053776307106018,0.03950082026124
1684109832729416400,3.44141650390625,-1.0749871930599213,-0.5954632626786828,-0.7364137021139263
1684109832739412200,3.451412109375,-0.8041969062685966,-0.8249453875258564,-1.1409079643435776
1684109832749409000,3.461408935546875,-0.7001543479919433,-0.4527332463502884,-1.3434380771182477
1684109832759404800,3.47140478515625,-0.5778519104033708,0.3683300390452146,-1.2568009732812642
1684109832769400800,3.48140087890625,-0.25326865862607956,1.257326604590565,-1.1379678192384541
1684109832779397000,3.491397216796875,-0.12093640993237495,1.9120782148011028,-1.1068195245198904
1684109832789392000,3.501391845703125,-0.042189620953798294,2.0829412696801124,-1.1203570514850318
1684109832799388000,3.511387939453125,-0.07837737114429473,1.7617258869007228,-0.9616980830103158
1684109832809384000,3.521384033203125,0.05151566770374775,1.0284389385052024,-0.5486635175809264
1684109832819379700,3.531379638671875,0.13721943621337412,0.3662701839059591,-0.023643325915932652
1684109832829376000,3.5413759765625,-0.08215455159544945,0.013614537724107503,0.3477706506192684
1684109832839372000,3.5513720703125,-0.5129629663854837,-0.17342676788717507,0.4440454975038767
1684109832849367800,3.561367919921875,-0.8207488126188516,-0.21743308287411928,0.24197335762977598
1684109832859363800,3.57136376953125,-0.7380839734137058,-0.14823708931207655,-0.3611677462004125
1684109832869359900,3.58135986328125,-0.28316987589299675,-0.20549320036396382,-1.0434041601859032
1684109832879355000,3.59135498046875,0.22898995741605757,-0.3238030611850321,-1.559133084153384
1684109832889351000,3.601350830078125,0.49761985130310055,-0.4030712436892092,-1.6361261613324283
1684109832899347000,3.611346923828125,0.5833575220823287,-0.37254356508702036,-1.159244123762101
1684109832909343000,3.621343017578125,0.5309159717053175,-0.3126686498388648,-0.5775783541589975
1684109832919339000,3.631339111328125,0.3749491649240255,-0.25047975855991245,-0.14245295295268295
1684109832929334800,3.641334716796875,0.1471416952908039,-0.09994111430719495,0.10757380114272236
1684109832939330800,3.651330810546875,0.23886311665475368,0.10541136241182684,0.12168810508251189
1684109832949327000,3.6613271484375,0.7547855173677206,0.3118364367984235,-0.022527181367576123
1684109832959323000,3.671322998046875,1.2305530178248882,0.41568288798108693,-0.22670871461108325
1684109832969319000,3.68131884765625,1.0359943223208188,0.27354499232694507,-0.36439562220573424
1684109832979314000,3.69131396484375,0.39291210711598396,-0.16971286193057894,-0.31899609929472206
1684109832989310000,3.70131005859375,-0.008809329399466515,-0.7522974999442696,-0.11322145164087415
1684109832999306000,3.711305908203125,-0.12988017936646937,-1.0518827963262796,0.1497219210423529
1684109833009302000,3.721302001953125,0.15967793625891208,-0.8642673440888523,0.39255277228429913
1684109833019297800,3.7312978515625,0.5523275930464268,-0.31913711520060895,0.5940666937537491
1684109833029294000,3.741294189453125,0.6147112762451171,0.20556290459930895,0.7263770228765905
1684109833039289900,3.751289794921875,0.3603542378604412,0.5558969759657979,0.623777210754156
1684109833049286000,3.761285888671875,-0.04721475563943386,0.7543300286851823,0.3123841338090598
1684109833059282000,3.771281982421875,-0.38244215102791784,0.8628433026351034,-0.0619961451858282
1684109833069278000,3.78127783203125,-0.5830477254807949,0.831100695285201,-0.44756928771585225
1684109833079273000,3.79127294921875,-0.5960778874456882,0.6611575317300856,-0.7387202254906297
1684109833089269000,3.80126904296875,-0.5350947186946868,0.3852556010134518,-0.829732767932862
1684109833099264800,3.8112646484375,-0.7150175706028938,0.03243614257201552,-0.7016521853342652
1684109833109260800,3.8212607421875,-0.8436562254756689,-0.31416093422323466,-0.5553755824401975
1684109833119257000,3.831257080078125,-0.8605582604378461,-0.44660891825109716,-0.6160090609706937
1684109833129252900,3.8412529296875,-0.7691442975878715,-0.265859406260401,-0.7234875850453972
1684109833139249000,3.851248779296875,-0.5227689056068658,0.006548544860631227,-0.871364316612482
1684109833149245000,3.861244873046875,-0.3571422900766134,0.22901728381440042,-0.9236506764277815
1684109833159241000,3.871240966796875,-0.41843934708237646,0.33860476286709307,-0.7480746215522289
1684109833169237000,3.881237060546875,-0.41124738975167274,0.33840544090270996,-0.36697599408775566
1684109833179232000,3.89123193359375,-0.35450901896357534,0.3156048494212329,0.0817640909731388
1684109833189227800,3.901227783203125,-0.3904337343037128,0.32315000410377975,0.4337602503329515
1684109833199224000,3.91122412109375,-0.43775896458029745,0.43754298374205824,0.5719710356712341
1684109833209219800,3.9212197265625,-0.37852468532323835,0.5310263002119958,0.44632864000499245
1684109833219216000,3.9312158203125,-0.3671031275987625,0.5363404809720814,0.16176321810036898
1684109833229212000,3.9412119140625,-0.33670974290072914,0.4765457913532853,-0.1291425127416849
1684109833239208000,3.9512080078125,-0.2636854232221842,0.24792729759812354,-0.32811113364249467
1684109833249204000,3.961203857421875,-0.2908195138633251,-0.18549466069117188,-0.4491907514378428
1684109833259199700,3.97119970703125,-0.4859674074321985,-0.615602233735472,-0.5655503549739718
1684109833269195800,3.98119580078125,-0.6722627169817685,-0.8194353919327259,-0.6447147848427295
1684109833279191000,3.99119091796875,-0.5805518170118331,-0.7614476056054235,-0.6224214122310281
1684109833289187000,4.00118701171875,-0.38224692071676253,-0.42581133715510366,-0.5165919705376029
1684109833299182800,4.011182861328125,-0.2778589100033045,-0.0122737906396389,-0.369841904912889
1684109833309179000,4.021178955078125,-0.18344225820600985,0.2780360201358795,-0.23823650918900965
1684109833319175000,4.0311748046875,-0.047454994136095045,0.2641546481691301,-0.14476502928733825
1684109833329171000,4.0411708984375,-0.018464461973309514,0.08714899888187647,-0.11880144373029469
1684109833339167000,4.0511669921875,0.06404781701862812,-0.09794731014147401,-0.19896131437718867
1684109833349162800,4.061162841796875,0.2781622768640518,-0.24370924151167273,-0.24158552735596894
1684109833359159000,4.071158935546875,0.5435913288831711,-0.3181130328498781,-0.2602855516508221
1684109833369154800,4.08115478515625,0.7522486923664807,-0.3572524724528193,-0.20989070467054843
1684109833379149800,4.09114990234375,0.9206640618324279,-0.28238398621231314,0.10188333441615104
1684109833389145900,4.101145751953125,1.052877652582526,0.01395779820382595,0.2794920641630888
1684109833399142100,4.11114208984375,0.8261445341825485,0.2735613589398563,0.17640227656662463
1684109833409138000,4.121137939453125,0.4834948798388242,0.23349895927309988,-0.1395037477582693
1684109833419134000,4.131134033203125,0.34851416246294975,0.07987067844197153,-0.5121750308781862
1684109833429129700,4.141129638671875,0.3108224374502897,-0.14100801484137773,-0.7060656178623438
1684109833439126000,4.1511259765625,0.3396025417327881,-0.4662229886509478,-0.5908057922616601
1684109833449122000,4.1611220703125,0.4498082988142967,-0.5792373734124004,-0.3007575550317764
1684109833459117800,4.171117919921875,0.4009042749136686,-0.4912669751450419,-0.11937836683541536
1684109833469113900,4.18111376953125,0.1852180357068777,-0.4259940002456307,-0.12172405317872761
1684109833479108900,4.19110888671875,0.16331307789087293,-0.2675030818141997,-0.3321969416514039
1684109833489105000,4.20110498046875,0.28864743052124975,0.11947232872918248,-0.7017027464777231
1684109833499101000,4.211100830078125,0.44778936020731924,0.5054574130609631,-0.9716647657513617
1684109833509097000,4.221096923828125,0.677577190002799,0.7779233779795467,-1.078277466776967
1684109833519092700,4.2310927734375,0.7528554260879755,0.8585109725192188,-1.0652107721939683
1684109833529089000,4.241089111328125,0.7089315286874771,0.6203463595226407,-0.881508109486103
1684109833539084800,4.251084716796875,0.5977998889327049,0.28499241514503953,-0.5526078712925314
1684109833549080800,4.261080810546875,0.18318974474966526,0.1829404461637139,-0.3329705563724041
1684109833559077000,4.2710771484375,-0.17595745540857313,0.15073957365229726,-0.293790638628602
1684109833569073000,4.281072998046875,-0.2558218502402305,0.20131182302609085,-0.4315019500121474
1684109833579068000,4.29106787109375,-0.21520108603835106,0.4167937718324363,-0.696273999427259
1684109833589064000,4.30106396484375,0.0625105244487524,0.5716667920276522,-0.8563447343960404
1684109833599059700,4.311059814453125,0.45704701789617536,0.5908125142633914,-0.7220902854681015
1684109833609056000,4.321055908203125,0.49538288603127,0.5016657656930387,-0.3470248006880283
1684109833619052000,4.331052001953125,0.1918798316836357,0.17258900188878176,0.02794569928497076
1684109833629047800,4.3410478515625,-0.15213818840384483,-0.3664860186137259,0.35381022304445503
1684109833639043800,4.3510439453125,-0.4488952756226062,-0.7580432039894163,0.5651426509559154
1684109833649040000,4.361039794921875,-0.6233955179601908,-0.7849730042301117,0.7525476753130554
1684109833659036000,4.371035888671875,-0.6131149469643831,-0.3590111526884138,0.9673848964750766
1684109833669032000,4.381031982421875,-0.3053887219637632,0.2507867786824703,1.0296411539018153
1684109833679027700,4.39102783203125,-0.06489537375867366,0.7508832492321729,0.7383280113026499
1684109833689023000,4.40102294921875,-0.026381226447224616,1.0132225185424089,0.25536124699115753
1684109833699019000,4.41101904296875,-0.1259229661732912,0.9854169583804905,-0.21925094595104455
1684109833709014800,4.421014892578125,-0.228679576292634,0.5706883023843169,-0.5091138897418975
1684109833719010800,4.4310107421875,-0.2269143201857805,-0.04441840291917324,-0.46740357673764227
1684109833729007000,4.441007080078125,-0.24277941331565378,-0.4202329525008797,-0.19519757792949674
1684109833739003000,4.4510029296875,-0.2783709511786699,-0.37605405742600556,0.15494769286662338
1684109833748999400,4.46099951171875,-0.27643793728947635,-0.09334200830310582,0.40117403176575894
1684109833758995200,4.4709951171875,-0.19493278951346873,0.2603960262879729,0.49663025574386116
1684109833768991500,4.480991455078125,-0.06398819578588008,0.5296656793832779,0.3914320976912975
1684109833778987500,4.490987548828125,0.15044249040186405,0.6643043053232133,0.15131664288789032
1684109833788983300,4.5009833984375,0.15895838981270788,0.5751387059219181,-0.10685995378494262
1684109833798978300,4.510978271484375,-0.04887362876236438,0.19341259420886633,-0.31991409092247486
1684109833808974600,4.520974609375,-0.08222586326599121,-0.11051263107359409,-0.394542046405375
1684109833818970400,4.530970458984375,-0.02163666226863861,-0.1974567550331354,-0.35537995657920834
1684109833828966400,4.54096630859375,0.030867431950569152,-0.10783040625229477,-0.1845896746754646
1684109833838962400,4.55096240234375,-0.0616173750013113,0.07091244209110736,-0.027707798875868318
1684109833848958500,4.56095849609375,-0.17814356727600097,0.26485738961100574,-0.006874854205548763
1684109833858954500,4.57095458984375,-0.19060440492033956,0.4256294047169387,-0.11255232020765542
1684109833868950300,4.5809501953125,-0.019250059393048285,0.48552404757887124,-0.2647515911489725
1684109833878946300,4.5909462890625,0.17504150960743425,0.485576654548943,-0.334680867421627
1684109833888942600,4.600942626953125,0.2247457439750433,0.4406250215359032,-0.3040381841376424
1684109833898938400,4.6109384765625,0.21041092915236947,0.33331337846070525,-0.14665303499102592
1684109833908933400,4.620933349609375,0.18069208271503448,0.3260628228105604,0.07123568269610404
1684109833918929400,4.630929443359375,0.18787644126117228,0.39920083199664946,0.21594781275242567
1684109833928925400,4.640925537109375,0.12255553556680679,0.36063188575804234,0.29523469995707274
1684109833938921500,4.65092138671875,-0.023902269113063812,0.14166077966168522,0.29021687179505823
1684109833948917500,4.66091748046875,-0.18386428301036356,-0.16888590958714483,0.19904957718253136
1684109833958913300,4.670913330078125,-0.2624333773344755,-0.3611636545471847,-0.009190729932487011
1684109833968909600,4.68090966796875,-0.1667535737335682,-0.3134107003778219,-0.19998539672791957
1684109833978905300,4.6909052734375,0.08507599200010299,-0.06224164437949657,-0.2546326404556632
1684109833988901400,4.7009013671875,0.34380174698829646,0.17634630859568715,-0.11325813038945197
1684109833998897400,4.7108974609375,0.39126141729950903,0.37069223813191055,0.056797699759900566
1684109834008893400,4.7208935546875,0.2805196536451578,0.48536768797338004,0.2055699188619852
1684109834018888400,4.730888427734375,0.13388824596405027,0.5348100565344095,0.2875657727643847
1684109834028884500,4.740884521484375,0.05997194588184356,0.49308454596102236,0.2576332835763693
1684109834038880300,4.75088037109375,0.014019173002243042,0.3595766776166856,0.07082037989348172
1684109834048876500,4.76087646484375,-0.04344225136339664,0.12887977015227078,-0.16354513308107851
1684109834058872600,4.77087255859375,-0.02210018812716007,-0.1466037890218198,-0.3357078723818063
1684109834068868400,4.780868408203125,0.05038520236909389,-0.3088787560366094,-0.33754736276865005
1684109834078864400,4.790864501953125,0.06959317618608474,-0.2139249286226928,-0.24674451755434273
1684109834088860400,4.8008603515625,-0.029384499916434288,0.0019990648627281186,-0.07477905439138412
1684109834098856400,4.8108564453125,-0.08024082692861556,0.13633783107325434,0.08914367983043193
1684109834108852500,4.8208525390625,-0.04776537525951862,0.2348931901104748,0.12147095520049332
1684109834118848300,4.83084814453125,0.0864087019085884,0.25527853714376686,0.053176878914237016
1684109834128843300,4.84084326171875,0.22026713725626468,0.2924097056642175,-0.02370616201907396
1684109834138839600,4.850839599609375,0.19548866983056068,0.2755535556703806,-0.08506342477947473
1684109834148835300,4.86083544921875,0.13779226766526698,0.1853705959200859,-0.13390402805507182
1684109834158831400,4.870831298828125,0.053926820498704904,0.10635390395894646,-0.19226766195744274
1684109834168827400,4.880827392578125,-0.04779635491967201,0.036260961557179686,-0.2105830708488822
1684109834178823400,4.890823486328125,-0.10312953508496284,-0.12138882987499236,-0.09638795187026261
1684109834188819500,4.9008193359375,-0.10196692104637622,-0.27089930012375113,0.009325169967114924
1684109834198815200,4.910815185546875,-0.0981032313555479,-0.2838417838051915,0.05480068072378635
1684109834208811500,4.9208115234375,-0.050258361119031904,-0.22096520252302287,0.09548749589920043
1684109834218807600,4.9308076171875,-0.013743278670310973,-0.06275120133683085,0.09866144976019858
1684109834228803300,4.94080322265625,0.055793783414363855,0.15856237623244523,0.04231003246307373
1684109834238798300,4.95079833984375,0.1335217507392168,0.3039835313409567,-0.06938274830579758
1684109834248794400,4.96079443359375,0.12212649649977683,0.3592546060554683,-0.25294132636785505
1684109834258790400,4.970790283203125,0.12061726098060607,0.4327205320216715,-0.43749096129387616
1684109834268786400,4.980786376953125,0.17246785972714423,0.37834450645074247,-0.4623091762080788
1684109834278782500,4.990782470703125,0.17954232815802096,0.25179171794131394,-0.38259032732695336
1684109834288778200,5.0007783203125,0.04108779719173908,0.2274244616650045,-0.2528936878338456
1684109834298774500,5.0107744140625,-0.12377543275058268,0.18110621647387742,-0.11453092680424451
1684109834308770300,5.020770263671875,-0.19032383441329,0.18013269526660441,-0.12434884872436523
1684109834318766300,5.030766357421875,-0.16530805110037325,0.29289588174596426,-0.3613213293269276
1684109834328762400,5.040762451171875,0.0005412672698497772,0.26553616565540433,-0.5958896713972092
1684109834338758400,5.05075830078125,0.2436591187596321,0.08161328432559967,-0.6811933346733451
1684109834348754400,5.06075439453125,0.4558563468068838,0.00012727964147925377,-0.6114920219376683
1684109834358749400,5.07074951171875,0.5124117622435093,0.03283800137117505,-0.22463497707694768
1684109834368745200,5.0807451171875,0.44402328567206856,0.06837240221947431,0.3437655066311359
1684109834378741500,5.090741455078125,0.21573183191418646,0.11249781354144214,0.743078128439188
1684109834388737500,5.100737548828125,0.05950900454521179,0.08480915775746106,0.9032017626389861
1684109834398733300,5.1107333984375,0.14698153629302976,-0.06723448423072695,0.841151256917417
1684109834408729300,5.120729248046875,0.3845312322616577,-0.1285936466872692,0.5514262602925301
1684109834418725400,5.130725341796875,0.4813257191061973,-0.21496406241208313,0.19591566307097671
1684109834428721400,5.140721435546875,0.4313210404872894,-0.5124056247636676,0.022080898904800413
1684109834438717400,5.150717529296875,0.3384697383105755,-0.637649376501143,-0.05496902302801609
1684109834448713200,5.160713134765625,0.1871615709900856,-0.31989100230783224,0.01834784985631704
1684109834458709500,5.17070947265625,0.06652034461200237,0.14331921439319847,0.29247137272357937
1684109834468704500,5.18070458984375,-0.06030278527140617,0.5322914978422224,0.476102431499958
1684109834478700300,5.1907001953125,-0.23096739496886728,0.6487475474901497,0.4959092479929328
1684109834488696300,5.2006962890625,-0.39433191078603264,0.4419537859216332,0.22008272060006856
1684109834498692600,5.210692626953125,-0.45130116772055623,0.11395210400298238,-0.37411329862177367
1684109834508688400,5.2206884765625,-0.5284200632363557,-0.018082915309816597,-1.1445078885316848
1684109834518684400,5.230684326171875,-0.6899193697035312,-0.06275646203383803,-1.7158701446548104
1684109834528680400,5.240680419921875,-0.5393669891864061,-0.1949298669040203,-1.9402122762650251
1684109834538676500,5.250676513671875,-0.15084288789629935,-0.3359595090553164,-1.7579034060031176
1684109834548672500,5.260672607421875,-0.020664017844200133,-0.45416357141435143,-1.1413009091839195
1684109834558668300,5.270668212890625,0.019687866288423537,-0.4001914504691958,-0.4516533421590924
1684109834568664300,5.280664306640625,0.08259761918783187,-0.06995674880146979,0.13026684059649704
1684109834578660600,5.29066064453125,0.20214637415409087,0.15877777254879474,0.6071291505530476
1684109834588655400,5.3006552734375,0.5016694189548492,0.2579587161384523,0.7195742109939456
1684109834598651400,5.3106513671875,0.7437526666998863,0.509888965767622,0.45528000822365283
1684109834608647400,5.3206474609375,0.5832423712700605,0.8002788560420274,0.17638064925670624
1684109834618643500,5.3306435546875,0.40627135490477084,0.9423048157542944,-0.05934066224098205
1684109834628639500,5.340639404296875,0.32056232569813725,0.9703162737518548,-0.07328940035551786
1684109834638635500,5.350635498046875,0.02823006918430328,0.7831311757557093,0.030801965498924253
1684109834648631300,5.36063134765625,-0.4284790950596332,0.15530863513350485,0.1106841882482171
1684109834658627600,5.370627685546875,-0.7085638644188642,-0.763942783422023,-0.043723114131391044
1684109834668623400,5.380623291015625,-0.6604664807260036,-1.56660999590531,-0.5416285043776035
1684109834678619400,5.390619384765625,-0.3900345058530569,-1.909289460865408,-1.2235460616722702
1684109834688615400,5.400615478515625,0.2588566878914833,-1.5803974059782921,-1.7857456449136138
1684109834698611500,5.410611572265625,0.873240631878376,-0.29302140782177444,-1.7859116491302847
1684109834708606500,5.4206064453125,1.0036240845918656,1.2074705406621098,-0.928653599281609
1684109834718602500,5.4306025390625,1.0401479348689318,2.105236395857483,0.18814941298365592
1684109834728598300,5.440598388671875,0.8951718931794166,2.3377793695800007,1.1183429351836442
1684109834738594300,5.45059423828125,0.4226934973955154,1.8205192905224858,1.6415043472394346
1684109834748589800,5.46058984375,-0.13955693925023077,0.6605296090900897,1.4085560075864194
1684109834758585600,5.470585693359375,-0.3728103993296623,-0.6002855682685971,0.3716644441649318
1684109834768582000,5.480581787109375,-0.41429157975316044,-1.4174839949294924,-0.8277449551165104
1684109834778578000,5.490577880859375,-0.12081950555443763,-1.6992140472777186,-1.7152020361348985
1684109834788573700,5.50057373046875,0.37904023362994194,-1.1038795255452394,-1.8407371720343828
1684109834798569700,5.51056982421875,0.46189095079600806,0.10706380579397082,-0.9889788886457681
1684109834808565800,5.520565673828125,0.4121797021657228,1.0042224888764322,0.5300988101035357
1684109834818561800,5.530561767578125,0.5459498747080564,1.3662233249001203,1.8279475408270953
1684109834828556800,5.540556884765625,0.5452355889588594,1.455452198795974,2.5000766945570705
1684109834838552800,5.550552734375,0.14018062410652637,1.1260152233771978,2.2688006720304488
1684109834848548900,5.560548828125,-0.0573299069404602,0.36127164496630426,1.1135825889140367
1684109834858545000,5.570544921875,-0.026772856113314626,-0.33331454750448464,-0.25978578543514014
1684109834868540700,5.580540771484375,0.0048036008894443505,-0.6385187066815793,-1.3550956355556845
1684109834878536700,5.59053662109375,0.14172843807041643,-0.5464104779571295,-1.934479577831924
1684109834888533000,5.600532958984375,0.24957272671759126,-0.1457503870628774,-1.7307336595267055
1684109834898528800,5.61052880859375,0.17324235123097895,0.2484650577366352,-0.754974902459979
1684109834908524800,5.62052490234375,0.20331834054291248,0.340300168608129,0.2623658650562167
1684109834918520600,5.6305205078125,0.22355390384197235,0.2845899718239903,0.7323159114062786
1684109834928516900,5.640516845703125,-0.010053191980719566,0.2721511998809874,0.5546276866823434
1684109834938513000,5.650512939453125,-0.1812351035505533,0.08652136850282549,-0.07575988212227822
1684109834948508000,5.6605078125,-0.29750585975944993,-0.20152225090637801,-0.7685755577892065
1684109834958503700,5.670503662109375,-0.34448856020867824,-0.40567996488288044,-1.2545990793228148
1684109834968500000,5.6805,-0.22543489528298377,-0.5524224317230284,-1.4350044540509581
1684109834978495700,5.690495849609375,-0.09267360752224922,-0.5712845147117972,-1.206694003331661
1684109834988491800,5.70049169921875,0.044323125851154326,-0.42153468274921174,-0.6425239968001842
1684109834998487800,5.71048779296875,0.1363759711265564,-0.24506577068716287,-0.09379676633328199
1684109835008483800,5.72048388671875,0.19738076718747616,-0.08500029641538857,0.24057313544303177
1684109835018479900,5.73047998046875,0.11641221050620078,0.1056250051625073,0.26586393630504607
1684109835028475600,5.7404755859375,-0.05256605353951454,0.16041896388456225,-0.08097410963922738
1684109835038471700,5.7504716796875,-0.11647943052351474,0.004924743051081895,-0.44706104593276974
1684109835048468000,5.760468017578125,0.004972527715563774,-0.2314860120154917,-0.6815677209436893
1684109835058463700,5.770463623046875,0.14507482588887213,-0.39489173662587995,-0.674427201539278
1684109835068458800,5.780458740234375,0.10177461334466933,-0.3232015881605446,-0.4288713092476129
1684109835078454800,5.790454833984375,-0.0006143325060606002,-0.24289456412792204,0.07648439700454474
1684109835088450600,5.800450439453125,0.08013327490091324,-0.21947920174896715,0.5827987191557884
1684109835098446800,5.81044677734375,0.14233984796702862,-0.046706075464934105,0.7924921476885676
1684109835108443000,5.82044287109375,0.19412205765247345,0.11438830346316098,0.6064996204778552
1684109835118438700,5.830438720703125,0.22413550312221048,0.10451134483218193,0.16477321357131003
1684109835128435000,5.84043505859375,0.22275544694066046,-0.006923223391920328,-0.2659688579842448
1684109835138430700,5.8504306640625,0.1630056193768978,-0.08566226745545863,-0.5991615326747298
1684109835148426800,5.8604267578125,0.020497429105639457,-0.1476573897279799,-0.711744248020649
1684109835158422800,5.8704228515625,-0.04441781839728355,-0.18675854314714668,-0.572683567854762
1684109835168418800,5.880418701171875,0.04082710042893886,0.01708981261923909,-0.34337416922599073
1684109835178414800,5.890414794921875,0.19655776036679742,0.26120222810432314,-0.18293050929158924
1684109835188409900,5.900409912109375,0.34639585513472554,0.29706293829753994,-0.1602586587563157
1684109835198405600,5.910405517578125,0.3126525754868984,0.24087460260763763,-0.23120003468096256
1684109835208401700,5.920401611328125,0.21376725384294987,0.23612682355865836,-0.27175883956253527
1684109835218398000,5.93039794921875,0.14368892448842524,0.2260543423555791,-0.264644331382215
1684109835228393700,5.940393798828125,0.07918284230828285,0.23756460127681492,-0.2844669299662113
1684109835238389800,5.9503896484375,0.020910101559758185,0.28140798078700896,-0.3405424529314041
1684109835248385800,5.9603857421875,0.007548515683412552,0.369729968971014,-0.39229806687086816
1684109835258381800,5.9703818359375,0.0404115053653717,0.4196899316653609,-0.3495826684772968
1684109835268377900,5.9803779296875,0.14353636427521704,0.3884039820417762,-0.14599632464796303
1684109835278373600,5.99037353515625,0.13923662125468253,0.35607466084510087,0.06842705501616
1684109835288370000,6.000369873046875,0.10044131891429424,0.31410072846859693,0.24747049374133348
1684109835298366000,6.010365966796875,0.1184592061638832,0.3191293702855706,0.305495397208631
1684109835308361700,6.02036181640625,0.15494740060567855,0.3393151030935347,0.20606676246821878
1684109835318356700,6.030356689453125,-0.00820785637497902,0.2684212195724249,0.0578355183750391
1684109835328352800,6.040352783203125,-0.24167583598792552,0.030396015046536922,-0.006520926201343536
1684109835338348800,6.050348876953125,-0.36540392246544356,-0.17776669678762555,0.034544951419532295
1684109835348344800,6.0603447265625,-0.4516922128647566,-0.22448607012555002,0.11235855120122432
1684109835358340900,6.0703408203125,-0.4923685066461563,-0.32168431546539067,0.21861907778829334
1684109835368336600,6.080336669921875,-0.3175198892623186,-0.5164546078935265,0.2879448352098465
1684109835378333000,6.0903330078125,-0.04242109162211418,-0.5437872898466884,0.18988690430074928
1684109835388328700,6.10032861328125,0.17606909908950327,-0.2940609800025821,0.039298575687408445
1684109835398324700,6.11032470703125,0.26646424028575416,-0.05299333904087543,-0.11319061811119317
1684109835408320800,6.12032080078125,0.2255284187853336,0.15085618576928972,-0.2142503611847758
1684109835418316800,6.13031689453125,0.2253735204845667,0.24178426479846238,-0.25466069750636816
1684109835428312800,6.140312744140625,0.23097440923154353,0.22048414100781083,-0.29141397262513635
1684109835438307800,6.150307861328125,0.18858254370391367,0.19854381961748002,-0.3566647356927395
1684109835448303600,6.1603037109375,0.19482289939820766,0.2156719184204936,-0.3739519705802202
1684109835458300000,6.1702998046875,0.28065234011411666,0.19705928014814852,-0.19226707743555307
1684109835468296000,6.1802958984375,0.31141397360265255,0.14690043388083576,0.07136778464317321
1684109835478291700,6.190291748046875,0.2178869641214609,0.13196823768690227,0.22966829506903885
1684109835488287700,6.200287841796875,0.040461189725995064,0.06336407253816724,0.19773732554018497
1684109835498283800,6.21028369140625,-0.13789689708352088,-0.12133388481736182,-0.08347732463181018
1684109835508279800,6.22027978515625,-0.1970294695317745,-0.3029489275962114,-0.40643414425104857
1684109835518275800,6.23027587890625,-0.1387146432071924,-0.4090481261417269,-0.6560787671610713
1684109835528271600,6.240271728515625,-0.06058978551924228,-0.37563232488259674,-0.7481468100056051
1684109835538268000,6.250267822265625,-0.06690145288407802,-0.1382372349537909,-0.7012500342741608
1684109835548263700,6.260263671875,-0.037871757754683495,0.21757351425811647,-0.44535219618827104
1684109835558259700,6.270259765625,0.03158931648433208,0.5468458006344735,-0.1263739248111844
1684109835568254700,6.280254638671875,0.12007950084209441,0.7294185825295746,0.1367728614896536
1684109835578251000,6.2902509765625,0.19019991577267645,0.6020654374226927,0.243817816452682
1684109835588246800,6.300246826171875,0.11610007581710814,0.24358313091397285,0.2214189376398921
1684109835598242800,6.310242919921875,0.01119885488450527,-0.07112433127611875,0.05989712707996368
1684109835608238600,6.320238525390625,-0.046961657661199564,-0.20392434361204503,-0.14519962131232023
1684109835618235000,6.33023486328125,-0.09940496160387992,-0.07266615389063955,-0.3191764242976904
1684109835628231000,6.34023095703125,-0.11970891396403312,0.17008870950564742,-0.366419529248774
1684109835638226700,6.350226806640625,-0.009164718708395957,0.31140199090391396,-0.266268717713654
1684109835648222700,6.36022265625,0.15016776511371135,0.4229936493858695,-0.2029527221009135
1684109835658218800,6.37021875,0.20339666647613047,0.45635625915303824,-0.1375689803034067
1684109835668214800,6.38021484375,0.12303718160390853,0.2678321676380932,-0.060576633776724335
1684109835678210800,6.3902109375,-0.03918225583136081,-0.09213087894767523,-0.023591887989640233
1684109835688206600,6.40020654296875,-0.07765607113242148,-0.3280108881384134,0.03629354865252971
1684109835698201900,6.410201904296875,-0.04419745364487171,-0.3832506909318268,0.1308309042200446
1684109835708198000,6.420197998046875,0.11302256806790828,-0.1987279440127313,0.31886107473820446
1684109835718193700,6.430193603515625,0.3028010435581207,0.13025953407287597,0.5489008334681391
1684109835728189700,6.440189697265625,0.42056057702004906,0.4674377712681889,0.6164750710472464
1684109835738186000,6.45018603515625,0.41267186959683894,0.646256169065833,0.4643780914366245
1684109835748181500,6.460181396484375,0.35208734477460385,0.55105333532691,0.1698158839136362
1684109835758177500,6.470177490234375,0.27951427599489687,0.24988442301526664,-0.08026040841192007
1684109835768173600,6.480173583984375,0.22356676332354544,-0.11023293734937906,-0.17440408848673103
1684109835778169600,6.490169677734375,0.047971711486577986,-0.34427126419618725,-0.11152560750842094
1684109835788165600,6.50016552734375,-0.10329203217029571,-0.4566200246557593,0.02085924815535545
1684109835798161400,6.510161376953125,-0.12352525738179683,-0.3798642633639276,0.12504238394647835
1684109835808157400,6.520157470703125,-0.009020341801643371,-0.1128464808486402,0.1503267550677061
1684109835818153700,6.53015380859375,0.1985077253907919,0.18965324167534708,0.06155453889816999
1684109835828149500,6.5401494140625,0.23816753560602663,0.3216103734463453,-0.12110241414904593
1684109835838144500,6.55014453125,0.13139701367020606,0.32654081558585163,-0.2888955600634217
1684109835848140500,6.560140625,0.02954991961121559,0.3023490620069206,-0.28429624957442284
1684109835858136300,6.57013623046875,-0.020244331127405167,0.22958237035125492,-0.14039134424775837
1684109835868132600,6.580132568359375,0.02128594913482666,0.08100128990709782,0.06828267810940743
1684109835878128600,6.590128662109375,0.06895780089199542,-0.04252060647383332,0.20979221273213625
1684109835888124400,6.60012451171875,-0.04074176023304462,-0.11837459662035107,0.21386106960624454
1684109835898120700,6.61012060546875,-0.15726619894206523,-0.16778087095469235,0.01102379057854414
1684109835908116500,6.620116455078125,-0.16702829902172087,-0.08309314761981368,-0.26476415836960077
1684109835918112500,6.630112548828125,-0.18713702107071875,0.053327247170358895,-0.4815037060216069
1684109835928108500,6.640108642578125,-0.16771686580777168,0.12314619493633508,-0.5116626974418759
1684109835938104600,6.6501044921875,-0.12157879948914051,0.04238032122030854,-0.35196517969965935
1684109835948100600,6.6601005859375,-0.14394494507610797,-0.06743117584660649,-0.14250614444464443
1684109835958096400,6.670096435546875,-0.18294073842465877,-0.1303995270654559,-0.0378475000962615
1684109835968091400,6.68009130859375,-0.10026303973793983,-0.17812778518497943,-0.01978489692211151
1684109835978087400,6.69008740234375,-0.025323826348781584,-0.15718831140026449,0.027724457749724388
1684109835988083700,6.700083740234375,-0.014615969851613043,-0.09837225755527615,0.05367956773936748
1684109835998079500,6.71007958984375,-0.014784896677732466,-0.043349896904826164,0.11571984432786703
1684109836008075500,6.720075439453125,0.012094926941394805,0.022021716063469646,0.13549685020446778
1684109836018071600,6.730071533203125,0.04077975415587425,-0.02324614329189062,0.0840013485059142
1684109836028067600,6.740067626953125,0.027048750445246694,-0.18042393329814074,-0.04100654864907265
1684109836038063600,6.750063720703125,0.02895779893696308,-0.30205607040971516,-0.1289627722606063
1684109836048059400,6.760059326171875,0.0828840349137783,-0.32174145248010755,-0.0843023772791028
1684109836058055700,6.7700556640625,0.06351181044578552,-0.23499255883172154,0.018481120847165584
1684109836068051500,6.780051513671875,0.06319499958157539,-0.057560062434524294,0.10557722049802541
1684109836078047500,6.790047607421875,0.06266776083707809,0.18150325296744704,0.12076514501869678
1684109836088043500,6.80004345703125,0.08818447940945624,0.3529007069841027,0.012801029384136199
1684109836098038500,6.81003857421875,0.15977847402393816,0.38087753205969926,-0.03817892400771379
1684109836108034600,6.82003466796875,0.1956435681313276,0.28759704468548297,0.017098142056167123
1684109836118030600,6.830030517578125,0.09711538936197757,0.0991448493629694,0.06222936941981315
1684109836128026400,6.8400263671875,-0.08926116873025894,-0.09207797971665858,0.04157967236191034
1684109836138022400,6.8500224609375,-0.16596154657304285,-0.2329955397956073,-0.04467997646480799
1684109836148018700,6.860018798828125,-0.12739011611640452,-0.25565643054544923,-0.16479162601083516
1684109836158014500,6.870014404296875,-0.02938917609155178,-0.10657485323324799,-0.272861540107429
1684109836168010500,6.880010498046875,0.06893558906018733,0.09029679538831115,-0.2716448577940464
1684109836178006500,6.890006591796875,0.09163608116805552,0.19228110596090553,-0.23600071296095845
1684109836188002600,6.90000244140625,0.024295652344822883,0.27217662658318875,-0.1930477064192295
1684109836197998600,6.90999853515625,-0.0009977788656949996,0.29359394701272246,-0.20012568198144434
1684109836207994400,6.919994384765625,0.06702946317791939,0.2520316641770303,-0.24843963103443384
1684109836217990700,6.92999072265625,0.2265185988664627,0.23161855235397813,-0.31156390346735713
1684109836227986700,6.939986572265625,0.34332536164820193,0.2527228613115847,-0.32293314648270605
1684109836237981400,6.9499814453125,0.3388946857243776,0.23705840532034633,-0.2493015085607767
1684109836247977500,6.9599775390625,0.22184943801164625,0.2400878361441195,-0.09461275889128445
1684109836257973500,6.969973388671875,0.08216448846757411,0.13718728750944137,0.03415565984100103
1684109836267969500,6.979969482421875,0.03329436683654785,-0.03000964607745409,0.11838409510105848
1684109836277965600,6.989965576171875,-0.026213468664884564,-0.11969751578718422,0.1229647008895874
1684109836287961600,6.999961669921875,-0.07504793446063995,-0.15169965085610745,0.06168576406240463
1684109836297957400,7.009957275390625,-0.12572481325268745,-0.19105317160114646,-0.04484042772352695
1684109836307953700,7.01995361328125,-0.10582944169342517,-0.18280381417199967,-0.1199693184658885
1684109836317949400,7.029949462890625,-0.06274316416084766,-0.10797682898566126,-0.1982546274125576
1684109836327945500,7.039945556640625,-0.0157943659812212,-0.016417320185154675,-0.28021511774063107
1684109836337941800,7.049941650390625,0.032011925810575485,0.09920417833477257,-0.3054989043399691
1684109836347937500,7.0599375,0.043287353062629694,0.24659487995058296,-0.23898703529536722
1684109836357933600,7.06993359375,0.07066928098499775,0.36938890044838185,-0.05718348420709371
1684109836367928600,7.079928466796875,0.0900818374633789,0.40061771305724975,0.13684095828980206
1684109836377924400,7.08992431640625,0.0480623123794794,0.31386385097280145,0.3052852615892887
1684109836387920600,7.099920654296875,0.01268295596241951,0.16900836692303417,0.34901743580996986
1684109836397916700,7.109916748046875,0.014726444488763809,0.03294277691990137,0.23128625165969133
1684109836407912400,7.119912353515625,-0.053203766921162604,-0.12368088633492588,0.04311579588800669
1684109836417908500,7.129908447265625,-0.05667407338023185,-0.27494170738235113,-0.14791443322896958
1684109836427904500,7.139904541015625,0.0055061962008476255,-0.2575780462577939,-0.2622825706869364
1684109836437900500,7.149900634765625,0.09300503143370151,-0.08097454803064465,-0.25709990735203025
1684109836447896600,7.159896484375,0.11186579924821853,0.11131357219293712,-0.17951660919487475
1684109836457892400,7.169892333984375,0.07693477112054824,0.1554088806375861,-0.07848287734538316
1684109836467888600,7.179888671875,0.008061141380667686,0.08127776876091956,-0.01039542954713106
1684109836477884400,7.189884521484375,-0.027308862686157225,-0.017992168286442754,-0.025869185271859167
1684109836487880400,7.19988037109375,-0.025886136406660078,-0.061003919278085225,-0.11186404568254947
1684109836497876700,7.209876708984375,0.0035457097828388213,-0.0764930187024176,-0.20098171428889036
1684109836507872500,7.21987255859375,0.13747837941050528,0.05172711849734187,-0.2163093395411968
1684109836517867500,7.229867431640625,0.2688508431613445,0.3000451689787209,-0.18067103992700576
1684109836527863600,7.239863525390625,0.30131051273941994,0.425212932870537,-0.10925415544509887
1684109836537859300,7.249859375,0.23358722207844257,0.34288886992707845,-0.01646130545735359
1684109836547855600,7.259855712890625,0.09987024102807045,0.10202712680101395,-0.011531155578792094
1684109836557851600,7.2698515625,-0.01994914757311344,-0.20495777831301093,-0.09876023395955562
1684109836567847400,7.279847412109375,-0.10403612853586673,-0.4233757805712521,-0.20459902800321578
1684109836577843500,7.289843505859375,-0.12902385479807854,-0.49504298655241724,-0.325557357506454
1684109836587839500,7.299839599609375,-0.04770400046110153,-0.3897916370078921,-0.3726382576331496
1684109836597835500,7.30983544921875,0.0439800115019083,-0.09535641686543822,-0.3945259720534086
1684109836607831600,7.31983154296875,0.05931552779972553,0.17511852036640047,-0.3572720539361238
1684109836617827300,7.329827392578125,0.07286591424643993,0.39849925959855315,-0.258168997888267
1684109836627823600,7.33982373046875,0.07856266458332538,0.3943523690521717,-0.15259733034819364
1684109836637819600,7.349819580078125,0.014766191977262496,0.2225672308921814,-0.12105915952920913
1684109836647815400,7.3598154296875,-0.04496083923280239,0.0374748673915863,-0.16259323918372393
1684109836657810400,7.369810546875,-0.11875322067439556,-0.1361661277681589,-0.22837299456149338
1684109836667806700,7.379806640625,-0.12927636825442312,-0.23542554342150687,-0.31844343384802337
1684109836677802500,7.389802490234375,-0.05008242003023624,-0.25977336434498427,-0.3736071026653051
1684109836687798500,7.399798583984375,0.05945581305325031,-0.19134762450307607,-0.3391153427377343
1684109836697794600,7.409794677734375,0.1670622012913227,-0.10212766456604003,-0.2657183903545141
1684109836707790600,7.41979052734375,0.17287702504992483,-0.05056538124158978,-0.17343085954040288
1684109836717786600,7.42978662109375,0.09641104048490523,-0.013318185126036405,-0.10378361507952212
1684109836727782400,7.439782470703125,0.029219080221652982,0.041446255240589376,-0.04085135808736086
1684109836737778400,7.4497783203125,0.005056698867678642,0.0935085970416665,0.027553192836046216
1684109836747775000,7.45977490234375,-0.016598668101429938,0.10406155523806809,0.035413843208551406
1684109836757771000,7.46977099609375,-0.05003565827906131,0.12721139854863286,0.00912321765422821
1684109836767767000,7.47976708984375,-0.0290092368632555,0.1510930632650852,-0.046776948744058605
1684109836777763000,7.48976318359375,-0.013905191233754157,0.14553689044266938,-0.11766980935186147
1684109836787759000,7.499759033203125,0.005672200417518616,0.032214608775824306,-0.12338964830338954
1684109836797755000,7.5097548828125,0.057384267476201054,-0.1713746576629579,-0.10454875423312186
1684109836807750000,7.51975,0.06568740091919899,-0.35283816314190625,-0.0916588775217533
1684109836817746000,7.529745849609375,-0.0235322667568922,-0.37366643163710833,-0.010775661036372184
1684109836827742200,7.5397421875,-0.13393325414955615,-0.2045329770296812,0.10662439146339893
1684109836837738000,7.549738037109375,-0.07436813550293445,0.1334765964232385,0.22642975153923034
1684109836847734000,7.559734130859375,-0.007720365118980407,0.37450390537455674,0.2049360048726201
1684109836857730000,7.56972998046875,0.004672083464264869,0.36143092718124387,0.04998655844032764
1684109836867726000,7.57972607421875,0.044133156237006185,0.288476311738044,-0.0827645001873374
1684109836877722000,7.58972216796875,0.07634732662141322,0.2401620704241097,-0.1410834181651473
1684109836887718000,7.5997177734375,0.09150105661153793,0.14059621917009352,-0.0303992299169302
1684109836897714200,7.609714111328125,0.058273909792304034,0.03212766114473343,0.1371814422905445
1684109836907710000,7.6197099609375,0.058954877793788905,-0.061225745335221286,0.18787761030495165
1684109836917706000,7.6297060546875,0.08834054675400256,-0.14641308875530956,0.14566694656312465
1684109836927702000,7.639701904296875,0.15950433325767516,-0.1829354777276516,-0.008420330081880091
1684109836937698000,7.649697998046875,0.189374570864439,-0.07261223174631595,-0.2429752281486988
1684109836947693000,7.659693115234375,0.2568652218133211,0.19735767857283354,-0.40681846739351746
1684109836957689000,7.669689208984375,0.3675093703120947,0.48016865802556274,-0.35798955455571413
1684109836967684900,7.679684814453125,0.3622001579880714,0.599264554657787,-0.2344090598553419
1684109836977681000,7.689680908203125,0.2167459773927927,0.5034127554908394,-0.1293181615695357
1684109836987677200,7.69967724609375,0.07867664635181426,0.3074512074515223,-0.06426292107403278
1684109836997673000,7.7096728515625,0.033387890338897705,0.15882278073430062,-0.05894435639977455
1684109837007669000,7.7196689453125,0.0431476523309946,0.04464592806473374,-0.0428512997329235
1684109837017665000,7.7296650390625,0.0733247639298439,-0.08584346924126147,-0.08714549175053835
1684109837027661000,7.7396611328125,0.03991290819346904,-0.2125388810917735,-0.14034838188886642
1684109837037657000,7.749656982421875,-0.0633908144146204,-0.3122381494671106,-0.22495091115832327
1684109837047652900,7.75965283203125,-0.09858312382698059,-0.2700020590230822,-0.2649211024969816
1684109837057649200,7.769649169921875,0.002385433831810951,-0.014527999307215213,-0.18239391819685696
1684109837067645200,7.779645263671875,0.08936988980174064,0.2589865978814661,-0.02169540671855211
1684109837077641000,7.789640869140625,0.07721124997437,0.3400280736684799,0.14033201527595518
1684109837087637000,7.799636962890625,0.006435001483559608,0.1831497050002217,0.23580431360602377
1684109837097632000,7.809632080078125,-0.020995441755652426,0.0228700034558773,0.17501023768633603
1684109837107628000,7.8196279296875,-0.02435761166512966,-0.04660743739604949,0.06563245586156845
1684109837117624000,7.8296240234375,0.00992927334010601,-0.13477891119346022,0.014082593627274036
1684109837127620000,7.8396201171875,0.05672551130652427,-0.19012422018796205,-0.018825696501135827
1684109837137616000,7.849615966796875,0.11519289784431457,-0.16717983632162212,0.0007049333989620208
1684109837147612200,7.859612060546875,0.1776630902826786,-0.11489698363766074,0.021739245860278606
1684109837157608000,7.86960791015625,0.15493746373355388,-0.07759381955116987,0.08719254576265811
1684109837167604000,7.87960400390625,0.056578211790323255,-0.05848521445542573,0.10813771863579749
1684109837177600300,7.889600341796875,0.016764087796211243,0.010544336498528718,0.07836509618461132
1684109837187596000,7.899595947265625,0.09243103093802929,0.14883242485672235,0.04611439318209886
1684109837197592000,7.909592041015625,0.14144786756336689,0.16477599005028604,0.02406885785162449
1684109837207587800,7.919587890625,0.07408639595210552,0.050813949175179,-0.008471768008172512
1684109837217584000,7.929584228515625,-0.04594283600747585,-0.004643880283087491,-0.07106412552148103
1684109837227580200,7.939580078125,-0.06541442919671535,0.02865779307708144,-0.0623167554423213
1684109837237576000,7.949575927734375,-0.0018622867405414581,0.15574015841856598,-0.08419307168573141
1684109837247572000,7.959572021484375,0.05920563768446445,0.20507921273559332,-0.11922142270803451
1684109837257567000,7.96956689453125,0.011077858853340148,0.09793050513714552,-0.19616087000370025
1684109837267563000,7.97956298828125,-0.10674480297267436,-0.022415391556173562,-0.2651817992597818
1684109837277559000,7.98955908203125,-0.13144552898705006,-0.0728892951220274,-0.24486060350388286
1684109837287555000,7.99955517578125,-0.15706979958713055,-0.05078472308069467,-0.1777083907291293
1684109837297550800,8.00955078125,-0.19431261178851125,-0.027131168031692503,-0.07625643346756696
1684109837307547100,8.019547119140626,-0.19348025261759758,-0.06322144919708371,0.008143851228058338
1684109837317543000,8.02954296875,-0.20133739585876465,-0.12324936304986477,0.034766777476668356
1684109837327539000,8.0395390625,-0.19985621739029882,-0.18728402832597493,0.016565350353717805
1684109837337535200,8.04953515625,-0.09092530255019664,-0.1805506284177303,-0.02675269010812044
1684109837347531000,8.059531005859375,-0.013690087178349495,-0.0708019674539566,-0.055229135268926616
1684109837357527000,8.069527099609376,0.017747838136553763,0.13403276900127528,-0.13146627951413392
1684109837367523000,8.079523193359375,0.020917115822434423,0.2739280002951622,-0.1554831149175763
1684109837377519000,8.08951904296875,0.038919220981001854,0.31936200999766584,-0.11161270126998424
1684109837387515100,8.09951513671875,0.05129296486377716,0.21091201054230332,-0.05576397279798984
1684109837397511000,8.109510986328125,-0.01249473991394043,-0.043835050073266026,-0.04598725967109203
1684109837407507000,8.1195068359375,-0.13761924918591975,-0.32212562949210405,-0.04640606960505247
1684109837417502000,8.129501953125,-0.1656716237157583,-0.46124242375940083,-0.0034738135904073715
1684109837427498000,8.139498046875,-0.1098322475939989,-0.3672754154257476,0.01618804147392511
1684109837437494000,8.149493896484374,-0.04479834214746952,-0.11119608329311012,-0.008523790456354617
1684109837447490000,8.159489990234375,0.00734334850013256,0.1302038583628833,-0.07435264567285775
1684109837457486000,8.169486083984374,0.02829553563594818,0.30490254588201643,-0.2141369639381766
1684109837467482000,8.179482177734375,0.020092355436086652,0.3878621302500367,-0.33453532147109505
1684109837477478100,8.18947802734375,0.0024456395864486695,0.32529329974278803,-0.40552433592975135
1684109837487474000,8.199473876953125,0.025977321821451186,0.10818740299642085,-0.32072569956630465
1684109837497470200,8.20947021484375,0.0940121626496315,-0.07534896323382854,-0.1478971898332238
1684109837507466000,8.219466064453124,0.15176234082877635,-0.11489552233293653,0.0416968690007925
1684109837517462000,8.2294619140625,0.14274199902713297,-0.014549626617133616,0.1978556912228465
1684109837527458000,8.2394580078125,0.0577612840950489,0.0494590274348855,0.21673487147688864
1684109837537454000,8.2494541015625,0.056035190954804415,0.05816957263499498,0.11443418843150138
1684109837547450000,8.2594501953125,0.1045475851893425,0.06514174973517656,-0.02098345905691385
1684109837557446000,8.26944580078125,0.1270639529019594,0.010079203204810618,-0.058230362911522386
1684109837567442000,8.27944189453125,0.0887228240698576,-0.05023366506919265,-0.05357406153827905
1684109837577437000,8.28943701171875,0.08087854031026363,-0.0675857818864286,0.01691460218280554
1684109837587433200,8.29943310546875,0.15157996999919413,0.02069748172238469,0.03490355559885502
1684109837597429000,8.309428955078126,0.23476737177371979,0.13487594182714818,0.032737317475676535
1684109837607425000,8.319425048828125,0.15117080467641353,0.1944397452995181,0.030482524286210535
1684109837617421000,8.329421142578125,-0.006314005452394485,0.07137070725262165,0.03079904288947582
1684109837627417000,8.3394169921875,-0.08471768008172512,-0.17613193519264458,0.060115738266706464
1684109837637413000,8.3494130859375,-0.06148410401046276,-0.3605938918352127,0.06385521705597638
1684109837647409000,8.359408935546876,-0.004060089045763015,-0.40349326849356293,0.008326514318585396
1684109837657405200,8.3694052734375,0.08649345758259296,-0.24884134370312094,-0.13066197739392518
1684109837667401000,8.37940087890625,0.15026654931306838,0.018142244281619785,-0.2668801276102662
1684109837677397000,8.38939697265625,0.1626958227753639,0.3070008333355188,-0.2875514519780874
1684109837687393000,8.39939306640625,0.10385960292518139,0.4967749249115586,-0.2770326883122325
1684109837697389000,8.40938916015625,0.011476502782106398,0.5015433083571493,-0.19504326415061948
1684109837707385000,8.419385009765625,-0.005957447099685669,0.34324192114844915,-0.13617314203083514
1684109837717381000,8.429381103515626,-0.012140519648790359,0.13636355003640055,-0.08958060994297265
1684109837727377000,8.439376953125,-0.038300212299823756,-0.05521086895987391,-0.07087766303867102
1684109837737373200,8.449373291015625,-0.10896423258781432,-0.2279234972283244,-0.1765033988535404
1684109837747368200,8.4593681640625,-0.16879706225991248,-0.2812486985720694,-0.29161767850369213
1684109837757364200,8.4693642578125,-0.18560148206651209,-0.1556612479634583,-0.3654544836089015
1684109837767360300,8.4793603515625,-0.12907704629004002,-0.04721753211840987,-0.34425182884335515
1684109837777356000,8.48935595703125,-0.010924714118242264,0.019826397976279258,-0.20667758784294127
1684109837787352000,8.49935205078125,0.03196399501562119,0.09227569424584507,-0.0021937106519937513
1684109837797348400,8.509348388671874,0.05542436558008194,0.1394612237907946,0.18835341112315654
1684109837807344000,8.51934423828125,0.035298692396283145,0.1942866005644202,0.255746446916461
1684109837817340200,8.529340087890626,0.014737550404667853,0.18458645980507135,0.1270639529019594
1684109837827336200,8.539336181640625,0.10330489165186882,0.12054507252722978,-0.08759265099614857
1684109837837332200,8.549332275390626,0.2336468433111906,0.040837329562008376,-0.24056027596145868
1684109837847328300,8.559328369140625,0.2657973008096218,-0.0660978814162314,-0.27889702087938784
1684109837857324000,8.569323974609375,0.27693536541759967,-0.17469386521354316,-0.17391688949167727
1684109837867320000,8.579320068359374,0.18911621218919752,-0.13678162931799887,0.050146717438101764
1684109837877316400,8.58931640625,0.0655430240124464,0.023370938715338706,0.32117373559474943
1684109837887312100,8.59931201171875,0.02347323004603386,0.08853343897759913,0.4966992293268442
1684109837897308200,8.60930810546875,0.02727554493844509,0.1360965696632862,0.5002051916211843
1684109837907304000,8.619303955078125,0.06593582272231578,0.11501637223362922,0.3032634003728628
1684109837917299200,8.62929931640625,0.07610358099341392,-0.06832330238074064,0.09375409623533487
1684109837927295200,8.639295166015625,0.05095218860208988,-0.231793178268522,-0.08750205010324716
1684109837937291300,8.649291259765626,0.07310907535254955,-0.2777778075911104,-0.21747838332056998
1684109837947287000,8.659287109375,0.21615093410909175,-0.15332082231715322,-0.2209045583769679
1684109837957283300,8.669283447265625,0.2979337297827005,0.16632000462189317,-0.15597352878302334
1684109837967279000,8.679279052734374,0.2482207275867462,0.5022095171809197,-0.0502934324324131
1684109837977275100,8.689275146484375,0.13071370758116244,0.6536126693084836,0.10115151301026344
1684109837987271200,8.699271240234374,-0.05891805291473865,0.516629087677598,0.22876053257435558
1684109837997267200,8.70926708984375,-0.16650281384289264,0.202490219155699,0.19191373395323752
1684109838007263200,8.71926318359375,-0.09193477185368537,-0.09622779287248849,0.02886076830327511
1684109838017259000,8.729259033203125,-0.024193945536017416,-0.3227021142058074,-0.20299773028641938
1684109838027255000,8.739255126953125,0.0010194061756134032,-0.44524435189962386,-0.3474246136605739
1684109838037251300,8.749251220703124,-0.0229746328741312,-0.39449981469884515,-0.2787789474576711
1684109838047247000,8.7592470703125,-0.06901917569041252,-0.11883549213036894,-0.07110211944431066
1684109838057243100,8.7692431640625,-0.0786181941628456,0.1496753054216504,0.10029109678864478
1684109838067239200,8.7792392578125,0.003494856378436088,0.2674640649780631,0.1341185475885868
1684109838077235200,8.789235107421876,0.1447796423345804,0.23432898035645483,-0.023588380858302116
1684109838087231200,8.799231201171875,0.22705226735174655,0.12905191184878348,-0.2392582534521818
1684109838097226200,8.809226318359375,0.18758184222877025,0.032171500286459924,-0.29020839622765776
1684109838107222000,8.819221923828126,0.0038385552495718,-0.03659326225146651,-0.15784604465663432
1684109838117218300,8.82921826171875,-0.20113164415359497,-0.14217881218641995,0.07833645461201667
1684109838127214000,8.839214111328126,-0.3242991741389036,-0.22946926536560058,0.161578509183228
1684109838137210000,8.849210205078125,-0.31687165448665616,-0.3063973144844174,0.06158230368793011
1684109838147206100,8.8592060546875,-0.2892389666736126,-0.22988836756050585,-0.20754443380534648
1684109838157202200,8.8692021484375,-0.22767887481749055,-0.01546250367835164,-0.453808182105422
1684109838167198200,8.8791982421875,-0.09725216748416424,0.11917904487103223,-0.486529717490077
1684109838177194200,8.8891943359375,-0.028301965376734732,0.07801774405166506,-0.3565916704565286
1684109838187190000,8.89918994140625,-0.03061784110367298,-0.044602965705841775,-0.1822881197348237
1684109838197186300,8.909186279296875,-0.08008183697462082,-0.13762991671040653,0.005766892963647842
1684109838207182000,8.91918212890625,-0.144327222391963,-0.14450535543784498,0.1531532106652856
1684109838217178000,8.92917822265625,-0.1484270589262247,-0.1117008179448545,0.1945417443692684
1684109838227174100,8.939174072265626,-0.11441431468725204,-0.052282852683961385,0.1706780537009239
1684109838237170200,8.949170166015625,-0.10987900934517383,-0.0008839432276785374,-0.0011307575955986976
1684109838247166200,8.959166259765626,-0.11659575037956237,0.07743088407441973,-0.22731910159438848
1684109838257162000,8.969161865234375,-0.11818798800706863,0.08269917986616492,-0.3704509767219424
1684109838267158300,8.979158203125,-0.09169979405403136,0.08469269177094102,-0.4450058669686317
1684109838277154300,8.989154296875,-0.046800914141535754,0.08036167682930827,-0.328160818003118
1684109838287149300,8.9991494140625,-0.05526829823553562,-0.0009025017976760864,-0.12641893299669027
1684109838297145000,9.00914501953125,-0.0609463438719511,-0.17087810631766914,0.06590367401838303
1684109838307141000,9.01914111328125,-0.029451719933748243,-0.26602920986935497,0.20293957035839558
1684109838317137200,9.02913720703125,0.0019464578926563262,-0.2643435948699713,0.23266893818974493
1684109838327133200,9.03913330078125,0.12270984934568405,-0.14701441564932466,0.10795943945944309
1684109838337129200,9.049129150390625,0.26539514974951744,0.09870923442468046,-0.06426613594442605
1684109838347125000,9.059125,0.31866379860043526,0.3649671384833753,-0.1929080056875944
1684109838357121300,9.069121337890625,0.3519108191639185,0.5755253671519458,-0.27052257576584815
1684109838367117000,9.079116943359375,0.40652211479544637,0.7054898638010024,-0.23101591028571128
1684109838377113000,9.089113037109374,0.3114250795185566,0.6810486655056476,-0.14316051670014857
1684109838387109000,9.099109130859375,0.18208675194382667,0.3419191481120884,0.012093465636670589
1684109838397105200,9.109105224609374,0.06770049430727958,-0.0802821818523109,0.1686392413496971
1684109838407101200,9.11910107421875,0.05375380201935768,-0.39825010714307424,0.31363515678346154
1684109838417097200,9.12909716796875,0.2079401551246643,-0.4879115272372961,0.3826803436979651
1684109838427093200,9.13909326171875,0.32574645033776756,-0.2692503638729453,0.3546054650753736
1684109838437089300,9.14908935546875,0.2978010433137417,0.13274638245254755,0.18554419892132282
1684109838447085000,9.1590849609375,0.23310499151945113,0.4305484486795962,-0.11003040051460265
1684109838457081000,9.1690810546875,0.1375298173367977,0.4927696347929537,-0.366486749266088
1684109838467077400,9.179077392578124,0.1573287427842617,0.36436332737132904,-0.5021165782004594
1684109838477072100,9.189072021484375,0.19375088625252246,0.06908624957725405,-0.43679421120136974
1684109838487068200,9.199068115234375,0.14366203648149967,-0.26300767009109255,-0.22802637308090923
1684109838497064200,9.209064208984374,0.08124912718832493,-0.4495888108447194,0.13057663719803095
1684109838507060000,9.21906005859375,0.14795476523935794,-0.41868689210265875,0.41957185824364424
1684109838517056300,9.22905615234375,0.19572423215210435,-0.20113558967635034,0.5087845116570592
1684109838527052300,9.23905224609375,0.15839841784238815,0.08255860235169529,0.3866396027177572
1684109838537048000,9.249048095703126,0.09481529572606086,0.2956517563253641,0.09594897593110799
1684109838547044400,9.25904443359375,0.029691373908519742,0.3306974968738854,-0.16792875499278306
1684109838557040000,9.2690400390625,-0.03078384532034397,0.26268691370412706,-0.2745020007908344
1684109838567036200,9.2790361328125,-0.024601357293128966,0.12712167443856595,-0.21660247726887463
1684109838577032200,9.2890322265625,0.027608137893676755,-0.06140972360000014,-0.08079524594098329
1684109838587028200,9.2990283203125,0.07908464263081551,-0.10959990014284848,0.012585048545897006
1684109838597024300,9.309024169921875,0.013050035709142684,-0.030505905161798,0.03811462659984827
1684109838607020000,9.31902001953125,-0.08404606443047523,0.05387333674579858,0.020837328584492207
1684109838617016000,9.32901611328125,-0.1914437783539295,0.039032033705711365,-0.05256751484423876
1684109838627012400,9.339012451171875,-0.2512146487057209,-0.08167451299354433,-0.12256664148271083
1684109838637008100,9.349008056640624,-0.16188859804570674,-0.14167524657845496,-0.23652181422561405
1684109838647004200,9.359004150390625,-0.059550505599379536,-0.05107099267616868,-0.31454993354082106
1684109838657000200,9.369000244140626,-0.015623101067543029,0.08391717735379933,-0.3090270784661174
1684109838666996200,9.378996337890625,0.0703010321944952,0.18174436824694276,-0.1734136161446571
1684109838676992300,9.3889921875,0.11327683508992195,0.2525397598296404,-0.005558510909974575
1684109838686987300,9.3989873046875,0.1022685343414545,0.2309478134855628,0.11570873841196298
1684109838696983000,9.408983154296875,0.026379472881555555,0.12231778128817677,0.14044979643672703
1684109838706979300,9.418979248046876,-0.0434744000673294,0.0010934943251311778,0.06910919206142425
1684109838716975000,9.42897509765625,-0.09026537733674049,-0.08943068007826804,0.026547522924840448
1684109838726971100,9.43897119140625,-0.042514615124464035,-0.127702543066442,0.011562427499890327
1684109838736967200,9.44896728515625,-0.004354688078165054,-0.08951382831707597,0.03289309255927801
1684109838746962400,9.45896240234375,0.024957915645837783,-0.09725859722495078,0.053043900184333324
1684109838756958500,9.46895849609375,0.00832242266535759,-0.09088307084366679,-0.004918459440767764
1684109838766954500,9.47895458984375,-0.053315995123982426,-0.031660335893929005,-0.07855038962364197
1684109838776950300,9.4889501953125,-0.04835223523676395,0.06000687106475234,-0.1331342127263546
1684109838786946600,9.498946533203124,-0.02484218031167984,0.08071881970390676,-0.11868658517897128
1684109838796942600,9.508942626953125,0.07149287232756614,0.010781798516213893,-0.12364011593312024
1684109838806938400,9.5189384765625,0.09998889897167682,-0.09839052386432885,-0.10930939276367425
1684109838816934400,9.528934326171875,0.012198971837759018,-0.23855726557597517,-0.0841498170658946
1684109838826930400,9.538930419921876,-0.03098199824094772,-0.339163419663161,-0.03823708393573761
1684109838836926500,9.548926513671875,-0.029189269605278966,-0.36467063975483177,-0.03609305764436722
1684109838846922500,9.558922607421875,0.018690671944618223,-0.26554464122280474,-0.11188012003451585
1684109838856918300,9.568918212890624,0.11769523605406283,0.0528358103916049,-0.20608459038585422
1684109838866914600,9.57891455078125,0.17837620698809623,0.3592702420160174,-0.21510405540466307
1684109838876910300,9.588910400390626,0.13385843534767627,0.5199881888471544,-0.17238953379392624
1684109838886906400,9.59890625,0.13559329631626604,0.4917597270980477,-0.12224281635582446
1684109838896901400,9.6089013671875,0.14927987636327741,0.36563305504620075,-0.0883151200518012
1684109838906897700,9.618897705078124,0.08746084131002425,0.055326312033087015,-0.12560820113569499
1684109838916893400,9.6288935546875,-0.01995265470445156,-0.27987244178280235,-0.175993111243844
1684109838926889500,9.638889404296876,-0.0823047737210989,-0.4320670365490019,-0.11727408803254365
1684109838936885200,9.64888525390625,-0.05397416677176952,-0.35311361908242106,-0.02221095502525568
1684109838946881500,9.658881591796876,0.0624058950304985,-0.05250687069818377,0.05356909310221672
1684109838956877600,9.668877685546875,0.1749614301085472,0.3262988235235214,0.06457943967729807
1684109838966873300,9.678873291015625,0.201983877068758,0.5655449481464923,0.07979600577056407
1684109838976869400,9.688869384765624,0.10789864918291568,0.6217810685008764,0.04616349302083254
1684109838986865400,9.698865478515625,-0.05414017098844051,0.47607276701405643,0.08622048586010933
1684109838996861400,9.708861328125,-0.16159458353519437,0.2385737783193588,0.10935440094918011
1684109839006857500,9.718857421875,-0.17889467790424823,0.012338380308449267,0.0672010203525424
1684109839016853200,9.728853271484375,-0.06310147607922553,-0.20117825977429746,-0.04242401423156261
1684109839026849500,9.738849609375,-0.002629179459810257,-0.3338065688051283,-0.18210428760051725
1684109839036845600,9.748845458984375,0.015461188504099844,-0.30579730276465417,-0.315952493815124
1684109839046841300,9.75884130859375,-0.02282616431415081,-0.1144322887353599,-0.33677579387426376
1684109839056837600,9.768837646484375,-0.050228550502657884,0.1502330854348838,-0.2149719534575939
1684109839066833400,9.77883349609375,-0.09885901815891265,0.3269138866819441,-0.022638240526616574
1684109839076829400,9.788829345703125,-0.0964350058823824,0.2536667180329561,0.13111381281465292
1684109839086825500,9.798825439453125,0.000983165818452835,0.038948739336431025,0.17102584422528744
1684109839096821500,9.808821533203124,0.12045710198283195,-0.04942629420906305,0.049551966415345663
1684109839106817500,9.818817626953125,0.24549042584002018,-0.025752280893921852,-0.16912965521514414
1684109839116812500,9.8288125,0.31449323491752146,0.08131751624941826,-0.3075195965126157
1684109839126808300,9.838808349609375,0.2832294971257448,0.256608032181859,-0.39932752711623903
1684109839136804400,9.848804443359375,0.1571504636079073,0.35963834467604755,-0.3261863030597567
1684109839146800600,9.858800537109374,-0.0024456395864486695,0.34202801531404253,-0.144429805983603
1684109839156796400,9.86879638671875,-0.1898410193324089,0.13415581085905431,0.15422434702813625
1684109839166792400,9.87879248046875,-0.30623744774758815,-0.20080080476403236,0.34395196911394593
1684109839176788500,9.88878857421875,-0.4094885633856058,-0.5301902877792716,0.4077887737303972
1684109839186784500,9.898784423828126,-0.4258621905595064,-0.7228343818336724,0.2469792030930519
1684109839196780500,9.908780517578125,-0.282277895489335,-0.7059719482295215,-0.14051321706175804
1684109839206776300,9.9187763671875,-0.06310615225434303,-0.4885618078395724,-0.5494318716049194
1684109839216772600,9.928772705078124,0.13204232583642006,-0.19468232188373802,-0.8090501915186643
1684109839226768400,9.938768310546875,0.3223211520642042,0.11613383195623755,-0.7314177935227751
1684109839236764400,9.948764404296876,0.41146424737274645,0.48941287171095604,-0.28580811544209717
1684109839246760400,9.958760498046875,0.31532910121977326,0.7420829799219966,0.326976576654613
1684109839256756500,9.968756591796875,0.13534253642559052,0.5678619929172098,0.8394266250818967
1684109839266752500,9.97875244140625,0.042910920965671534,0.16407237182557582,0.9983329924464225
1684109839276748500,9.98874853515625,0.07597031000256538,-0.26187340536415576,0.6742483378410339
1684109839286744300,9.998744384765626,0.07815992900133133,-0.6056565937824547,0.09678484223335981
1684109839296740600,10.00874072265625,0.07006956152617931,-0.7686573908537626,-0.4485977539807558
1684109839306736400,10.018736328125,0.06925123088061809,-0.6573132773920893,-0.7050479652523994
1684109839316732400,10.028732421875,0.1545265448451042,-0.21360431836619972,-0.5542082922264934
1684109839326728400,10.038728515625,0.1864116294056177,0.3351280266672373,-0.005179448464512825
1684109839336724500,10.048724365234374,0.14239713111221788,0.6249278420940041,0.5941998186141252
1684109839346719500,10.058719482421875,0.0905529621064663,0.5715780908308923,0.9866033916860818
1684109839356715500,10.068715576171876,0.03796878838837146,0.27871728039830923,1.0206956309020518
1684109839366711300,10.078711181640625,0.02196165643930435,-0.0614823504447937,0.7348138657018541
1684109839376707600,10.08870751953125,0.018220131823420523,-0.4610585916250944,0.2793108623772859
1684109839386703600,10.09870361328125,0.06717617817223072,-0.8027382318928837,-0.13603402582108973
1684109839396699400,10.108699462890625,0.12337445073425769,-0.8697462138913571,-0.4974912564873695
1684109839406695400,10.1186953125,0.2707300810366869,-0.4495113616943359,-0.7644330511569977
1684109839416691500,10.12869140625,0.3757552206099033,0.30399215303882954,-0.7207847558274865
1684109839426687500,10.1386875,0.32655425958931444,1.0491878581538796,-0.4529474736228585
1684109839436683500,10.14868359375,0.18959259752929208,1.4575646609053015,-0.09356558792591095
1684109839446679300,10.15867919921875,0.11675064868032932,1.2800140910863875,0.17026771933436394
1684109839456675600,10.168675537109374,0.015234978532791137,0.5616583159714937,0.07205664369016886
1684109839466671400,10.17867138671875,-0.09074643885195255,-0.26770883351936936,-0.3128206255301833
1684109839476667400,10.18866748046875,-0.20207798509299754,-0.8406991292357444,-0.6069333357200026
1684109839486663400,10.198663330078125,-0.15777356394231318,-1.0220596127316355,-0.7219874096155167
1684109839496659500,10.208659423828125,0.0449865581959486,-0.621538345786184,-0.6712123311460018
1684109839506655500,10.218655517578124,0.35193653812706466,0.1367668701402843,-0.4304357820853591
1684109839516651300,10.2286513671875,0.39883623646795746,0.7571423096269368,-0.0367167425006628
1684109839526647600,10.2386474609375,0.25473580856919287,0.9846100259117782,0.3423220298245549
1684109839536643600,10.2486435546875,-0.02583820561170578,0.8500337976835668,0.5433902533531189
1684109839546639400,10.258639404296876,-0.25141689327955247,0.41272579174116253,0.519545851907134
1684109839556635400,10.268635498046875,-0.3571592412114143,-0.18045929687246678,0.2804281759694218
1684109839566631700,10.278631591796875,-0.2988110971391201,-0.6671842446736991,-0.01912964788377285
1684109839576627500,10.28862744140625,-0.10580664533972739,-0.8526070091724395,-0.24762831465154886
1684109839586623500,10.29862353515625,0.011918401330709457,-0.5998603285938501,-0.4377048963055014
1684109839596618500,10.308618408203126,-0.0649807139545679,-0.13585048594772814,-0.4751449846446514
1684109839606614300,10.3186142578125,-0.14761281993389128,0.2901490672558546,-0.1911629155859351
1684109839616610600,10.328610595703125,-0.16212416036725044,0.5375191693626344,0.047236382949352264
1684109839626606600,10.338606689453124,-0.12340133874118327,0.5266742424823343,0.11826719072312115
1684109839636602400,10.348602294921875,-0.056525604820251464,0.3479631044514477,0.0022308277919888494
1684109839646598400,10.358598388671876,0.023131869262456892,0.10179682517647742,-0.2331216503933072
1684109839656594400,10.368594482421875,0.10932195998430251,-0.19043138644099233,-0.3602767887100577
1684109839666590500,10.378590576171876,0.2017792944073677,-0.39336788805946704,-0.3028150720834732
1684109839676586500,10.38858642578125,0.2045849994778633,-0.2658241888165474,-0.08353314647227525
1684109839686582500,10.39858251953125,0.11095920579731464,0.1280157006688416,0.2417284429579973
1684109839696578600,10.40857861328125,0.013524667483568191,0.3572673777610063,0.6212172971382737
1684109839706574300,10.41857421875,-0.10823591831326485,0.3054669017665088,0.7764332855522632
1684109839716570400,10.4285703125,-0.21981997801065445,0.012782324683666229,0.6487821804121137
1684109839726566700,10.438566650390625,-0.26775077296495436,-0.3832208803154528,0.204507258066535
1684109839736562400,10.4485625,-0.3047890025049448,-0.6402781175695359,-0.2666688229471445
1684109839746558500,10.458558349609374,-0.2748854471504688,-0.6616413697242737,-0.6459703378617763
1684109839756555000,10.468554931640625,-0.06741933927834033,-0.4770500876136124,-0.85975834223181
1684109839766551000,10.478551025390624,0.2357674887269735,-0.15244666983112692,-0.9244280905410647
1684109839776547000,10.488547119140625,0.4626473221212625,0.23265213318541644,-0.7243506316155195
1684109839786543000,10.498543212890626,0.42932197562456126,0.6208052092060447,-0.19941548788547514
1684109839796539100,10.5085390625,0.309579743912816,0.7540707932271062,0.43903000742942094
1684109839806535000,10.518534912109375,0.19234920276105402,0.5495772714249789,0.9177259625539184
1684109839816531200,10.52853125,0.03763853352069855,0.14289149050042033,0.9716948686286806
1684109839826527200,10.53852734375,-0.033303719186782835,-0.2572666422210634,0.49654316198229786
1684109839836523000,10.54852294921875,-0.004131985238194465,-0.4839924540974199,-0.1332058166578412
1684109839846519000,10.55851904296875,0.09531272385418414,-0.47412996238321065,-0.664852440725267
1684109839856515000,10.56851513671875,0.21507015313506125,-0.19258797995299098,-0.8785518900290131
1684109839866510000,10.578510009765624,0.2459428457826376,0.2508898006655276,-0.6540174507170915
1684109839876506000,10.588506103515625,0.19015081593394279,0.5621441997922957,-0.11333850214928388
1684109839886502100,10.598502197265624,0.05124094241559505,0.5101159063912928,0.44385786597728727
1684109839896498000,10.608497802734375,-0.07094283722937107,0.17603534295037387,0.7843789838597178
1684109839906494200,10.618494140625,-0.08117781551778316,-0.13514642933160065,0.8015615893289446
1684109839916490000,10.628489990234375,-0.0893757350206375,-0.2447853463105857,0.5268967991918325
1684109839926486000,10.638486083984375,-0.0424766212016344,-0.20928791647180914,0.09994739791750908
1684109839936482300,10.648482421875,-0.009648702833056449,-0.15614377078339456,-0.3362570306971669
1684109839946478000,10.65847802734375,-0.034717093116045,-0.05332432456091046,-0.5915121869653464
1684109839956474000,10.66847412109375,-0.019134908580780027,0.12012290159240364,-0.5839113565728068
1684109839966470000,10.678469970703125,0.03666764266192913,0.2607293498955667,-0.31638533227443694
1684109839976466200,10.688466064453126,-0.007484218275547027,0.28963454186245796,0.004446458014845848
1684109839986462200,10.698462158203125,-0.04859714990854263,0.20346973171234128,0.22310995946675538
1684109839996458000,10.7084580078125,-0.050879707887768744,0.08230901150479912,0.1800786269918084
1684109840006454000,10.7184541015625,-0.08492226274311541,0.004132715890556573,-0.12842033594697713
1684109840016450000,10.728449951171875,-0.08429390171170234,-0.01980886231958866,-0.4787850947126746
1684109840026446000,10.738446044921876,-0.06631517742872238,-0.02951163342744112,-0.6741486768588424
1684109840036442000,10.748442138671875,-0.07065232985019683,0.06988309904336928,-0.6614172055795788
1684109840046438000,10.75843798828125,-0.10542612158954143,0.12868833923339842,-0.43772184744030235
1684109840056434200,10.76843408203125,-0.12140402744412422,-0.06078194709047675,-0.10730302137732506
1684109840066430200,10.77843017578125,-0.16635083815157412,-0.3620115035481751,0.0917985782533884
1684109840076426000,10.788426025390624,-0.08610007435083389,-0.5085036488890647,0.1377390761733055
1684109840086422000,10.798422119140625,0.03489595681428909,-0.41184170238301154,0.0025277649119496344
1684109840096418000,10.80841796875,0.12729834617972374,-0.14763678533136843,-0.17951251754164696
1684109840106414000,10.8184140625,0.16612287461459635,0.19387772750258445,-0.29736557450592516
1684109840116410000,10.82841015625,0.2504220370233059,0.49542307191118595,-0.33069004421979187
1684109840126406100,10.83840625,0.3576327039420604,0.5849298859655857,-0.1952621675983071
1684109840136401200,10.848401123046875,0.35247079113423824,0.4156859567210078,0.02623363467007875
1684109840146397200,10.858397216796876,0.19465572613775728,0.05212459338232875,0.28042671466469765
1684109840156393000,10.86839306640625,0.0060620765179395675,-0.2557395787842572,0.48433045388013124
1684109840166389000,10.878388916015625,-0.15650573596358297,-0.43021322537586093,0.5288198762089014
1684109840176385300,10.88838525390625,-0.22656769870519636,-0.48655309836566446,0.3058259443372488
1684109840186381000,10.898381103515625,-0.14025485838651655,-0.3710034960381686,-0.002505553080141544
1684109840196377000,10.908377197265626,0.07331774966716766,-0.13772928543165325,-0.3520154485821724
1684109840206372900,10.918372802734375,0.21855916429460048,0.12592355069518088,-0.5188701446026563
1684109840216369200,10.928369140625,0.19948036981523035,0.3030050416976213,-0.36333939115107056
1684109840226365200,10.938365234375,0.08198854737877845,0.36329219100847837,-0.05424830753803253
1684109840236361000,10.94836083984375,-0.10194003303945064,0.3301639745190739,0.21303280208855865
1684109840246357000,10.95835693359375,-0.16857962011694907,0.23912235211282967,0.3169888511255383
1684109840256353000,10.96835302734375,-0.10271920071840286,0.06692790249958634,0.20875205602943897
1684109840266349000,10.97834912109375,-0.021254384952783582,-0.11588453337028622,-0.09451455921381711
1684109840276345000,10.988344970703125,0.050887891194224356,-0.29109453141242264,-0.420323845654726
1684109840286341000,10.998341064453125,0.11738134779930114,-0.46100028556659817,-0.6074445001125335
1684109840296337200,11.008337158203124,0.23834230765104292,-0.3332939431078732,-0.5344739564478397
1684109840306333200,11.018333251953125,0.22525544706284997,0.10543620459213852,-0.15636428166627883
1684109840316329000,11.028328857421876,0.14979776275753975,0.42225086819455027,0.38722996982634067
1684109840326325200,11.0383251953125,0.0013683657437562943,0.47209874881654973,0.7504743761703372
1684109840336321000,11.048321044921876,-0.11474047790169715,0.22069296145290135,0.7316460493206978
1684109840346317000,11.058317138671875,-0.19870529378950594,-0.11608297855183482,0.34715661037415263
1684109840356313000,11.06831298828125,-0.2933808887839317,-0.2856687069714069,-0.1807584259495139
1684109840366309000,11.07830908203125,-0.2652484347552061,-0.29965602353066206,-0.6015609950318932
1684109840376305200,11.08830517578125,-0.13495441389083862,-0.28138796091228724,-0.8118480055436491
1684109840386301000,11.098301025390626,-0.003468552893400192,-0.1764399782285094,-0.8009209533378482
1684109840396297000,11.108296875,0.16049451333880424,0.04368965025320649,-0.5516814040973782
1684109840406293200,11.118293212890626,0.23105273516476152,0.3685505499280989,-0.12648878336250782
1684109840416289000,11.1282890625,0.1358534085571766,0.4930256553806364,0.34243630385398866
1684109840426284000,11.138283935546875,-0.007409983995556831,0.3340766179181635,0.650085079704225
1684109840436280000,11.148280029296876,-0.047672436279058455,0.07906769149601459,0.6605395459622144
1684109840446276000,11.158276123046875,0.008697685718536376,-0.042154549640417094,0.33415596676468845
1684109840456272100,11.168272216796876,-0.00819733498096466,0.023619506648927927,-0.22994652748852967
1684109840466268200,11.17826806640625,-0.02464168930351734,0.045087826613336796,-0.6777876178830862
1684109840476264000,11.188263916015625,0.05431903468668461,-0.08132569955587386,-0.9021730041131377
1684109840486260200,11.19826025390625,0.13176000176370142,-0.23348171587735414,-0.7656590858206153
1684109840496256000,11.208256103515625,0.07502280001938343,-0.21457857022583485,-0.2917787142843008
1684109840506252000,11.218251953125,-0.07265665540993213,-0.11300152527987957,0.2728022111356258
1684109840516248000,11.228248046875,-0.17998364218473434,-0.06767214499562978,0.7396846866086125
1684109840526244000,11.238244140625,-0.13618658603429792,-0.041771541672199965,0.8710261706992983
1684109840536240000,11.248240234375,0.03509878591001034,0.08547799692973494,0.6112745797947049
1684109840546236200,11.258236083984375,0.22599077560007572,0.2682053848646581,0.07661065373271703
1684109840556232000,11.26823193359375,0.28612112691402436,0.36275589217469095,-0.37785745358616113
1684109840566228200,11.278228271484375,0.2526379595071077,0.3501508237540722,-0.6029775838315486
1684109840576224000,11.28822412109375,0.15026421122550965,0.19794117754921317,-0.4717088727161288
1684109840586220000,11.298219970703125,0.05605564922094345,-0.011991904958337544,-0.004373392778635025
1684109840596216000,11.308216064453125,-0.05000467861890793,-0.25519816538393497,0.5038885563090443
1684109840606212000,11.318212158203124,-0.08932838874757289,-0.39821854296103115,0.818549256747961
1684109840616208100,11.3282080078125,-0.13233517130315303,-0.3250286574572325,0.7950412476494908
1684109840626204000,11.338203857421876,-0.10419394944608211,-0.06564896860495209,0.393368910972774
1684109840636200200,11.3482001953125,-0.06392389837801456,0.20007818957790732,-0.2337041264563799
1684109840646196200,11.3581962890625,0.018146482065320015,0.3405734325915575,-0.8532517368167638
1684109840656192000,11.36819189453125,0.15225509278178215,0.3797032275833189,-1.2155129773423075
1684109840666188000,11.37818798828125,0.25853870798349377,0.4252149786971509,-1.1724486193805932
1684109840676184000,11.38818408203125,0.20460662678778171,0.4096675732143223,-0.6611322511583566
1684109840686180000,11.39818017578125,-0.004188683861494064,0.3014164573319256,0.05195113651156425
1684109840696176000,11.408176025390626,-0.16287234838604925,0.09448314116224646,0.6177937524303794
1684109840706172000,11.418171875,-0.13433774329721926,-0.22681144433319567,0.8303422781333327
1684109840716168200,11.428168212890625,-0.06873451353013516,-0.4245755117498338,0.5816293831154704
1684109840726164200,11.438164306640624,-0.04281856650710106,-0.3586801671683788,0.010111644169688225
1684109840736159000,11.448158935546875,0.031549568995833395,-0.17336173982694744,-0.506707120861113
1684109840746155000,11.458155029296876,0.08032032190561295,0.09657090722173452,-0.7257862173765898
1684109840756150800,11.46815087890625,0.15833178234696388,0.37216260294541714,-0.6353077818110585
1684109840766146600,11.478146484375,0.1563911696732044,0.5342804797023535,-0.32736236110180617
1684109840776142600,11.488142578125,0.018752631264925,0.46367081995010373,0.08725830447524785
1684109840786139000,11.498138916015625,-0.026830139258503912,0.1846307373382151,0.4260930767059326
1684109840796134700,11.508134765625,0.011133972954750061,-0.12326806775033473,0.6141568572327494
1684109840806130700,11.518130615234375,0.04465279619693756,-0.35457170893624423,0.5771089830815792
1684109840816126500,11.52812646484375,-0.0675210460871458,-0.4302278384231031,0.31997692702561614
1684109840826122800,11.538122802734375,-0.22978782979547976,-0.4307485012963414,-0.06438040997385978
1684109840836118800,11.548118896484375,-0.228718739259243,-0.3038369624771178,-0.3896025441765785
1684109840846114600,11.558114501953124,-0.06665069299340248,-0.028975772985070942,-0.5802174704909324
1684109840856110800,11.56811083984375,0.08472644791007042,0.2700057122848928,-0.545848167899251
1684109840866106600,11.578106689453126,0.29601182180941105,0.43769159843251104,-0.33582799163013693
1684109840876102700,11.5881025390625,0.2872831564307213,0.4475247179217636,-0.10929127258509397
1684109840886098700,11.5980986328125,0.2264092932730913,0.24977789390087127,0.08026888397932053
1684109840896094700,11.6080947265625,0.15814122821092605,-0.032903321692347526,0.08703209450393914
1684109840906090800,11.6180908203125,0.11977438041567802,-0.18428660007566214,-0.022025369325280188
1684109840916086800,11.628086669921874,0.2197860757410526,-0.13580577002316713,-0.06696925742328166
1684109840926082600,11.63808251953125,0.30155893454253674,-0.04275076196789741,0.05388327361792326
1684109840936078800,11.648078857421876,0.22936288238167762,-0.12158245275095104,0.23023411225825546
1684109840946074600,11.65807470703125,0.07620821041166782,-0.3830988613709807,0.35547786399573084
1684109840956070700,11.668070556640625,0.02314998944103718,-0.5857141682110727,0.411632881937921
1684109840966066700,11.678066650390624,0.19016367541551588,-0.6584069178476929,0.40715865913331506
1684109840976062700,11.688062744140625,0.3854553613692522,-0.5637647867314517,0.3224257814824581
1684109840986058800,11.698058837890626,0.3248480401933193,-0.4271704966790974,0.08456453534662724
1684109840996054500,11.708054443359375,0.006582300999760628,-0.32910949703007936,-0.3150438545376062
1684109841006050600,11.718050537109375,-0.17319091330468653,-0.07893821989744901,-0.6991960243538021
1684109841016046800,11.728046875,-0.05157528893649578,0.3713628308698535,-0.8740066478148102
1684109841026042600,11.738042724609375,0.023066987332701683,0.7211933366283774,-0.812230575120449
1684109841036038700,11.74803857421875,-0.0287041164368391,0.7266051325440407,-0.5502937491312623
1684109841046034700,11.75803466796875,-0.06267769770920276,0.5623544815421104,-0.23634353504925965
1684109841056030700,11.76803076171875,-0.11988777766227722,0.4234240036271512,-0.06417641183435917
1684109841066025700,11.778025634765624,-0.14522680158019066,0.2609875624403357,-0.036648645700514314
1684109841076021800,11.788021728515625,-0.1613414855569601,0.06444573029503226,-0.08616846341192722
1684109841086017500,11.798017578125,-0.08422200551927089,-0.032243542609363796,-0.18341770828664303
1684109841096013800,11.808013916015625,0.08539572547376155,-0.007025222461670637,-0.1225724867016077
1684109841106009600,11.818009521484376,0.2075911955565214,0.05688800839185714,-0.08388648995459079
1684109841116005600,11.828005615234375,-0.09113573043048381,-0.14101809784397482,-0.09849807589203119
1684109841126001700,11.838001708984375,-0.6739367876738309,-0.3963736457467079,-0.12575228578150272
1684109841135997700,11.847997802734374,-0.9831354233145714,-0.47129678478389975,-0.24117314716279506
1684109841145993700,11.85799365234375,-0.35312779373824593,-0.30923955217301846,-0.35255379324257374
1684109841155989800,11.86798974609375,0.3869844706326723,0.16984306418150663,-0.3758177644520998
1684109841165985500,11.877985595703125,0.5223386974960565,0.5934643439464271,-0.34972412277460097
1684109841175981800,11.88798193359375,0.226018248128891,0.5497853612177074,-0.3676359193012118
1684109841185977600,11.8979775390625,-0.06712181763648986,0.4654559498012066,-0.39289194111078973
1684109841195973600,11.9079736328125,-0.046911973300576205,0.6417389839023351,-0.3438011624664068
1684109841205970000,11.917969970703124,0.20785481492877006,0.8503210901923477,-0.12347791110873221
1684109841215965700,11.927965576171875,0.3154103497624397,0.6883494900383055,0.17746055344790218
1684109841225961700,11.937961669921876,0.1399181737780571,0.17268851674050092,0.5135097866132855
1684109841235957500,11.94795751953125,0.08252923012673855,-0.2756676835693419,0.7315832132175565
1684109841245953800,11.957953857421876,0.09863222366571425,-0.43332843478694555,0.8113006007939577
1684109841255949800,11.96794970703125,0.15833178234696388,-0.37452217168360946,0.818515646739304
1684109841265945600,11.977945556640625,0.16819675827920436,-0.2728241307064891,0.6107192839995026
1684109841275941600,11.987941650390624,0.14736089099943636,-0.2219170964203775,0.2433203883245587
1684109841285937700,11.997937744140625,0.17969898002445697,-0.19240429394915698,-0.12011866380870341
1684109841295933700,12.00793359375,0.18883739524781704,-0.09076280546486377,-0.23594722920805214
1684109841305929700,12.0179296875,0.21662615040540695,0.10010580334961414,-0.031418343831598756
1684109841315925500,12.027925537109375,0.2816869438588619,0.3061339873731136,0.29736966615915295
1684109841325921800,12.037921875,0.2138181072473526,0.3576012858904898,0.5452452335700393
1684109841335917800,12.047917724609375,0.08959668429493904,0.13932181532010435,0.5512354138955473
1684109841345913600,12.05791357421875,0.1188081657320261,-0.1933373370155692,0.3186149910226464
1684109841355909600,12.06790966796875,0.10543372037410735,-0.43541108627989883,-0.027775895676016807
1684109841365905700,12.07790576171875,-0.03158522483110428,-0.6104181090958416,-0.2930158548638224
1684109841375901700,12.087901611328125,-0.2309925294101238,-0.6428713489331305,-0.49507542751729483
1684109841385897700,12.097897705078125,-0.3595663023531437,-0.42954789333492516,-0.5495853086009621
1684109841395893800,12.107893798828124,-0.33104631031155585,-0.049447044736146924,-0.5084121712133288
1684109841405889800,12.117889892578125,-0.14328735795021055,0.39406346910819406,-0.40490123559534547
1684109841415885600,12.127885498046876,0.03885550809502601,0.6808154412716627,-0.2956339284077287
1684109841425881600,12.137881591796875,0.08349076863527298,0.691617113532126,-0.16929770525842905
1684109841435876600,12.147876708984375,-0.024673838007450103,0.3710539110511541,-0.035246377687156195
1684109841445873000,12.157872802734374,-0.3595487666964531,-0.06347323200106621,0.07412468213587999
1684109841455868700,12.16786865234375,-0.639583267173171,-0.4243512014746666,0.09235387404859065
1684109841465864700,12.17786474609375,-0.5655412948846816,-0.4874957860432565,0.02406915011256933
1684109841475860500,12.187860595703125,-0.2766349211663008,-0.27446123038902875,-0.13897943162322043
1684109841485856800,12.197856689453126,-0.02966623946726322,0.02854322678670287,-0.2995888035133481
1684109841495852800,12.207852783203125,0.1673801811993122,0.344507557170093,-0.35332506987601514
1684109841505848600,12.2178486328125,0.20642098273336887,0.6303396380096674,-0.29295506458729503
1684109841515844600,12.2278447265625,0.19969547387063502,0.7186623568460345,-0.10527765302956103
1684109841525840600,12.237840576171875,0.10781564707458019,0.42903804411664603,0.20725041929483412
1684109841535836700,12.247836669921876,-0.07034720942378044,-0.08660743935108184,0.476136041508615
1684109841545832700,12.257832763671875,-0.2063064164429903,-0.6385735056087374,0.5776844448819756
1684109841555828700,12.267828857421875,-0.21436521973609923,-1.0274553342953323,0.5341831568077207
1684109841565824800,12.27782470703125,-0.1744382830172777,-1.1672297156885265,0.36992870641350745
1684109841575820800,12.28782080078125,-0.10329378573596477,-0.917633315834403,0.0854243670463562
1684109841585816600,12.297816650390626,0.10276830055713652,-0.3023271424360573,-0.15835136383026838
1684109841595812900,12.307812744140625,0.2531044079750776,0.26246450312510133,-0.2589838214024901
1684109841605808600,12.31780859375,0.29174188940525053,0.6093003571122885,-0.34093729746788737
1684109841615804700,12.3278046875,0.2559539521872997,0.7197637422166764,-0.394836645437777
1684109841625800700,12.33780078125,0.2896697593063116,0.5549255005851388,-0.3908297478839755
1684109841635796700,12.347796630859374,0.2365577623218298,0.2356917931422591,-0.277283448202908
1684109841645792800,12.357792724609375,0.10915829385519027,-0.11208689465299249,-0.15359861634522676
1684109841655788500,12.36778857421875,0.03630816169977188,-0.3073905633054673,-0.11411533174067735
1684109841665784600,12.37778466796875,0.06546060642600059,-0.2850524747692048,-0.13050240291804074
1684109841675780900,12.38778076171875,0.1755664102643728,-0.04522328956127167,-0.182013394446671
1684109841685776600,12.397776611328124,0.247637374740839,0.1612619905799627,-0.13766367284953593
