time,seconds_elapsed,z,y,x
1684108454251294000,0.0212939453125,-0.9129472038447857,0.47055005806982514,-0.3233718301609158
1684108454261312000,0.03131201171875,-1.1195435431450604,0.5480877635195851,-0.2700400529459119
1684108454271329000,0.0413291015625,-1.0782622692078352,0.6190282626613974,-0.161940328232944
1684108454281347000,0.05134716796875,-0.9010726416558027,0.4856006199464202,-0.12258037774711847
1684108454291363800,0.06136376953125,-0.6611579701215028,0.25317455060184,-0.14748890129327774
1684108454301382100,0.071382080078125,-0.40031741493642325,0.20956337241232395,-0.1824298662930727
1684108454311399000,0.08139892578125,-0.06927811888754368,0.249515443572402,-0.21547025836855171
1684108454321417200,0.091417236328125,0.13243044837117193,0.19715864886939524,-0.41743221586644647
1684108454331435000,0.10143505859375,0.12581073797047138,0.148915134704113,-0.5908303421810269
1684108454341452000,0.1114521484375,0.0472433972120285,0.12941753029078246,-0.5656006238564849
1684108454351470000,0.121469970703125,-0.023554478588700294,0.13737813390642403,-0.4270531539097428
1684108454361486800,0.13148681640625,-0.0633557431012392,0.08055354613959789,-0.2976432224035263
1684108454371505000,0.1415048828125,-0.1073491986066103,-0.057117140972614285,-0.17087854470908642
1684108454381522000,0.15152197265625,-0.13304594992101193,-0.1313195645198226,0.04036299004852772
1684108454391540000,0.1615400390625,-0.1594634167253971,-0.10309197955355047,0.18572832331657407
1684108454401557000,0.171556884765625,-0.25489713661074637,-0.09170315505489707,0.1912763128325343
1684108454411575000,0.181574951171875,-0.42300855469405646,0.04008285793289542,0.043945816971361636
1684108454421592800,0.1915927734375,-0.6118336749821901,0.22817425711899994,-0.2806602311596274
1684108454431610000,0.201610107421875,-0.703752664744854,0.2748050753906369,-0.5533090052992106
1684108454441628000,0.2116279296875,-0.8169850761711597,0.14063421309292315,-0.38595103593170643
1684108454451645000,0.22164501953125,-0.9000923984467982,-0.03275309956669807,0.007879355072975158
1684108454461663000,0.2316630859375,-0.8524667239189148,-0.11291180116981267,0.358211672873795
1684108454471680000,0.241679931640625,-0.7000333519607782,-0.06621098640188575,0.5899000755935907
1684108454481698000,0.251697998046875,-0.5291653286457062,0.028304595725238323,0.653576428951323
1684108454491715800,0.2617158203125,-0.31701778495907784,0.1035856082893908,0.3973720091342926
1684108454501733000,0.271733154296875,-0.12271335647702217,0.24995339659824967,-0.21418898638635872
1684108454511751000,0.2817509765625,0.18194822025597093,0.33962753004357216,-0.7134387769788503
1684108454521768200,0.291768310546875,0.5251613537013531,0.3138083213932812,-0.8469076284870505
1684108454531786000,0.301785888671875,0.6721972505301237,0.23017668298259375,-0.3949918359994888
1684108454541803000,0.311802978515625,0.6651514236718415,0.28210370796620843,0.23142215299904345
1684108454551821000,0.321821044921875,0.826091342690587,0.6588112608648836,0.2012447491392493
1684108454561837800,0.331837890625,0.5677215615332126,0.857564193188399,-1.0892784610018134
1684108454571856100,0.341856201171875,-0.08631459388434887,0.7374106041967868,-2.066210645762086
1684108454581874000,0.3518740234375,-0.5775701708525419,1.565045230806619,-2.0546035023376343
1684108454591891000,0.361890869140625,-1.5563076514691114,2.1387951127186415,-2.620936239860952
1684108454601909000,0.371908935546875,-2.1457254965037107,2.6462521751642227,-3.392643665935099
1684108454611926000,0.381926025390625,-1.5269862799167633,2.5765607993006703,-2.6552418295666573
1684108454621944000,0.391944091796875,2.661452666905522,-0.7493411343567072,3.8330765258997674
1684108454631961000,0.401961181640625,2.1651012281030417,-0.31697284983880814,1.4932786561042068
1684108454641979000,0.411978759765625,1.3361585876345634,2.460883040548861,-0.4439128110349178
1684108454651996000,0.421995849609375,0.32743045790195463,2.6631159239426254,-0.8103706264674663
1684108454662014000,0.432013916015625,-0.21816402749717234,0.6641825786396861,0.9288719182074069
1684108454672032000,0.442031982421875,-0.7742980270892381,0.5345883766077458,-0.4444371271699667
1684108454682049000,0.452049072265625,-1.705266040793061,0.7097961096275598,-0.4345592917561531
1684108454692066800,0.46206689453125,-1.7467185796439646,0.7988768802896141,-1.3189011633634566
1684108454702084000,0.472083984375,-2.1190537626773116,1.3656439175769686,-2.4578397273302075
1684108454712102000,0.482101806640625,-3.692537005352974,3.272211990654468,-5.1865451447755095
1684108454722119200,0.492119140625,-10.010202733820677,5.117206235611438,-7.639061046734452
1684108454732137000,0.502136962890625,-11.608376765638589,4.641462116029858,-5.678117532607913
1684108454742155000,0.512155029296875,-4.7600165992617605,1.6758561141744255,-4.116090334448218
1684108454752172000,0.522172119140625,-0.14263561604321,0.47322556088939305,-4.782448211300373
1684108454762190000,0.532190185546875,3.718248954236507,-0.756072123112157,-3.527798278573155
1684108454772207000,0.54220703125,6.978337960898876,-1.975574681547284,-0.674807725289464
1684108454782225000,0.552224853515625,10.951055012679099,-4.152600740721821,2.4927988125085827
1684108454792242200,0.5622421875,19.167369419401883,-6.73559829507172,7.701745174184441
1684108454802260000,0.572260009765625,14.682811098742484,-6.817704915872215,10.974220784211159
1684108454812277000,0.582277099609375,2.8311709356635806,-4.966003866752982,8.750562153199315
1684108454822295000,0.592294921875,-0.5305798716187476,-2.9637285175457597,4.815877602693439
1684108454832313000,0.60231298828125,0.7931155402839183,-1.8221897079527376,0.6931541138410567
1684108454842329600,0.61232958984375,3.386242858982086,-1.7656541662603615,-2.2925077108323575
1684108454852347600,0.62234765625,5.22186721804738,-2.13262489965111,-3.772129597505927
1684108454862364400,0.632364501953125,5.487485655158758,-1.994779294363409,-5.1025616241872305
1684108454872382700,0.6423828125,3.7047330545812844,-0.23267113014683127,-5.23755169391334
1684108454882399500,0.6523994140625,0.8212216908276081,1.9068141567930579,-2.9718671080768106
1684108454892417800,0.662417724609375,-3.472031967687607,3.0308278310894963,0.563769024515152
1684108454902435600,0.672435546875,-4.980776488471031,2.9132646969825027,1.4817939700156448
1684108454912452600,0.68245263671875,-0.8626923498570919,3.105181938067078,2.088710062339902
1684108454922470700,0.692470703125,1.0603883204735816,2.3076805839143693,1.227664310646057
1684108454932487400,0.7024873046875,1.8880773076191544,2.7403067156508563,-0.17485329355895518
1684108454942505500,0.71250537109375,1.258202364511788,2.716545608574152,0.3705219961315393
1684108454952522500,0.7225224609375,8.280378590354323,-3.26068346542418,-15.157933871555327
1684108454962540500,0.73254052734375,12.078332364946602,4.988284087622166,-11.240255400907992
1684108454972557600,0.7425576171875,6.256293852660059,9.713092595380544,6.621928661271929
1684108454982575600,0.75257568359375,-9.296483970856666,5.014828980198502,16.26105877934098
1684108454992593400,0.762593505859375,-15.590319910925626,-0.5312874353662133,9.360921079453826
1684108455002610700,0.772610595703125,-7.96920777785778,5.030450327700376,5.7016036221355195
1684108455012628500,0.78262841796875,-0.5200263289004564,4.489916632822156,-0.24000176529586315
1684108455022645500,0.7926455078125,1.9976351221859454,1.7646486424796282,-1.569562854361534
1684108455032663600,0.80266357421875,0.05332534747421741,-2.2427086377881467,-0.32210487896502016
1684108455042680600,0.8126806640625,-9.04268573539853,-6.087129710653424,-2.0546651693969964
1684108455052698600,0.82269873046875,-12.76997607422471,-5.8106508568316695,-5.006258135730028
1684108455062715600,0.832715576171875,0.2754537485577166,-6.704635586053133,-6.932483387696743
1684108455072733700,0.842733642578125,-0.5334258356343955,-5.9210810703188175,-5.754330419194698
1684108455082751500,0.85275146484375,-0.40187282768487925,-4.217549890494347,-0.8831710742622614
1684108455092768800,0.862768798828125,0.6755833858370781,-5.151033101889491,3.300870514383912
1684108455102786600,0.87278662109375,2.166551426911354,-5.776872505870461,5.871968956625461
1684108455112803600,0.882803466796875,4.416639215165376,-5.256430581906438,5.8949745691597455
1684108455122821600,0.892821533203125,5.5532215713948005,-3.4793761929705735,3.246513485774398
1684108455132838400,0.90283837890625,5.1016076844632625,-0.3035314036592841,1.4770336237460373
1684108455142856700,0.912856689453125,4.325360276871919,1.612012295295298,-0.06384148079156875
1684108455152874800,0.922874755859375,1.7575082692056894,2.8995576586693526,-0.9530407293021679
1684108455162891500,0.9328916015625,-1.630084250819683,3.3493989829704165,-1.1090472835719585
1684108455172909600,0.94290966796875,-3.2956963266164063,2.7761984055042266,-1.0268839641481637
1684108455182926600,0.952926513671875,-0.9138724289309232,1.7603168968856333,-2.641031225645542
1684108455192944600,0.962944580078125,-0.8887363802392035,3.003713029670715,-9.1060964235574
1684108455202961700,0.972961669921875,-2.2301263657212256,5.8451873326838015,-0.07840601271688938
1684108455212979500,0.9829794921875,2.860588753327727,3.275367824336886,7.270225980776548
1684108455222997800,0.992997802734375,5.511262252065539,2.100810249978304,9.126139094632864
1684108455233014500,1.0030146484375,2.6792338227897883,2.876810989332199,9.1996286937356
1684108455243032600,1.013032470703125,-3.1770681936264036,3.2886697889804837,6.596144231674074
1684108455253049600,1.023049560546875,-5.286726351448893,5.593249630400538,7.090000346529483
1684108455263067400,1.0330673828125,-4.43062039424479,4.62873941257894,8.92649915034175
1684108455273084700,1.043084716796875,-4.052003354462981,1.4922089810460806,10.01224972947836
1684108455283102500,1.0531025390625,-3.1574484241381287,-0.4333569302290678,10.60362221571207
1684108455293119700,1.06311962890625,-3.05909472515285,-1.23929629625082,9.790058346161246
1684108455303137500,1.073137451171875,-2.3482499101899563,3.3286677451089024,5.735550899922847
1684108455313155600,1.083155517578125,0.43118163201659915,7.511489728832244,1.6922919929295777
1684108455323172600,1.093172607421875,2.4652646166339514,3.638452071683109,-4.260348583257198
1684108455333190700,1.103190673828125,-0.18139993872344493,5.223720152437687,-6.870128930592537
1684108455343207700,1.113207763671875,-1.0990624806523321,5.210194315910339,-4.287116763195395
1684108455353225700,1.123225830078125,-3.43820364010483,1.3441075008124113,-4.376431123417616
1684108455363242800,1.13324267578125,-3.7506542632788418,-0.7552581033155321,-11.529687259805202
1684108455373260500,1.143260498046875,-2.2341531370192764,1.5159705265142023,-17.563496299159524
1684108455383277600,1.153277587890625,-1.3916323453143238,1.2212601426921783,-14.83457402409315
1684108455393295600,1.163295654296875,-0.36547377283126115,-1.7437779961474238,-11.866876895177363
1684108455403313700,1.173313720703125,2.33170516423285,-1.6651248768016695,-9.212519154968858
1684108455413330400,1.183330322265625,11.699320188367366,0.2564224464818835,-12.067360889077186
1684108455423348700,1.1933486328125,18.483185378479956,-5.908629585024714,-14.44818518126607
1684108455433365500,1.203365478515625,14.256451480054855,-10.937861184585094,-12.29324002099633
1684108455443383800,1.2133837890625,8.612762871271372,-9.607387656849623,-6.853417449766397
1684108455453400600,1.223400634765625,6.829498229518532,-4.453632144258916,-2.5936896287560463
1684108455463418400,1.23341845703125,5.46530772562027,-3.1329777074873446,-1.1739181074112652
1684108455473436700,1.243436767578125,3.8639965648204084,-1.7072732889622448,0.1507452727407217
1684108455483453400,1.253453369140625,1.9808058601990342,0.5717401495248079,4.547803589123487
1684108455493471700,1.2634716796875,-3.070515698355436,0.38034196387827396,7.947693280664086
1684108455503488500,1.273488525390625,-5.546649791789054,4.275515757250785,6.679120036524534
1684108455513506600,1.283506591796875,-4.753203996637463,5.802654012858867,3.850169114997983
1684108455523523600,1.293523681640625,-3.753279935607314,3.8343580901429055,1.3770622604310512
1684108455533541600,1.303541748046875,-3.373286346775293,1.7278242018207908,-1.3443114989519118
1684108455543558700,1.31355859375,-0.9810860895693302,3.259965088021755,-3.788694363337755
1684108455553576700,1.32357666015625,0.9053238693594932,3.292287102694809,-3.630526831641793
1684108455563594500,1.333594482421875,1.7863199376702308,2.148750397282839,-2.2002251484543085
1684108455573611500,1.343611572265625,4.105048131430149,2.7077695969223976,-2.420078444212675
1684108455583629600,1.353629638671875,6.3117398455500595,2.2525398575812576,-2.496899233564734
1684108455593646600,1.363646484375,6.041680211120844,3.3616800801336764,1.5167173993587493
1684108455603664600,1.37366455078125,2.631786427438259,2.7404560609936714,4.086305437037349
1684108455613681700,1.383681640625,-0.33211174758598205,-0.013804653468728065,0.9254366830617189
1684108455623699700,1.39369970703125,-0.6390054672852158,-0.10530395651459694,-2.5865567081362006
1684108455633716500,1.403716552734375,-0.28260113609433174,0.43876960292756556,-5.059937118947506
1684108455643734800,1.41373486328125,-1.3361886905118823,1.4611808055758475,-6.589347411140799
1684108455653752600,1.423752685546875,-3.7392891119167206,2.668441210618615,-5.873192945462465
1684108455663769600,1.43376953125,-5.603333217519522,2.156856546849012,-4.235289545324444
1684108455673787600,1.44378759765625,-6.179730252939462,2.5655700342088936,-2.2262854723840952
1684108455683804400,1.453804443359375,-6.664528032070398,2.0677496918976304,-2.708565131214261
1684108455693822700,1.46382275390625,-6.827479290911555,1.932377344855666,-2.889672224470973
1684108455703839500,1.473839599609375,-5.887390982162952,2.0964882951259614,-4.867608082191646
1684108455713857500,1.483857421875,-3.2274387829482554,2.6110090123474596,-6.341848568087816
1684108455723875600,1.49387548828125,1.2427427834428846,3.5567888107359407,-4.135392124028503
1684108455733892600,1.503892578125,5.836269866734742,3.9658945122838016,-1.0709653901979326
1684108455743910700,1.51391064453125,8.989894056409597,2.9135838459342716,0.2005181884303689
1684108455753927700,1.523927734375,11.100490371865034,0.10759002162516117,1.2451279250137508
1684108455763945500,1.533945556640625,11.519495536136626,-2.008252962312102,2.4416079928450283
1684108455773962500,1.54396240234375,9.049198478293418,-0.9348591759234667,3.910350319716334
1684108455783980500,1.55398046875,6.000690029084682,2.836833783730864,5.595830294543505
1684108455793997600,1.56399755859375,2.7369325630426404,7.266053079006076,7.60526983629167
1684108455804015600,1.574015625,-1.8481481789432466,8.867997861534356,7.673738976883888
1684108455814033400,1.584033447265625,-4.906129536026716,9.047527330210805,6.176341779544949
1684108455824050700,1.59405078125,-5.991919862651825,8.128848889237641,3.788044667257368
1684108455834068200,1.604068115234375,-6.184227564358711,4.575750165191293,-0.4704552924584597
1684108455844085500,1.61408544921875,-4.169716126173735,1.973049546983838,-4.478130041177571
1684108455854103300,1.624103271484375,0.1959106946349144,1.9980016174107789,-3.9523210372224447
1684108455864120600,1.63412060546875,3.8351638535678383,1.7724720295816658,-2.3178597403623162
1684108455874138400,1.644138427734375,5.935944877451658,0.6813274824470281,-1.4050512143358587
1684108455884156400,1.654156494140625,6.080858375298977,-0.3988508495151996,-0.9482448002625257
1684108455894173400,1.66417333984375,4.199003010934591,-0.11096680458188056,0.4407344367271289
1684108455904191500,1.67419140625,0.5659224031567573,1.2426333317190408,3.619532851679623
1684108455914208500,1.68420849609375,-3.5158231786191463,2.0676345410853623,5.889152731138467
1684108455924226300,1.694226318359375,-6.874203048163652,2.317766070729494,7.895650374215841
1684108455934243300,1.704243408203125,-5.175476053750515,2.8020196599811316,9.41445802385211
1684108455944261400,1.714261474609375,-2.2509468893013893,2.6016186681896447,9.345496131306886
1684108455954278400,1.7242783203125,-2.961097876781225,2.2625836972117424,9.650711250269412
1684108455964296400,1.73429638671875,-1.3565676078043878,4.69015395848453,9.059009093689918
1684108455974314500,1.744314453125,4.013104007226229,3.616393676871061,7.75607473026514
1684108455984331300,1.754331298828125,4.32979679801464,3.462456330090761,8.760835125410557
1684108455994349600,1.764349609375,4.490972863876819,6.2229872108638284,11.066472366929053
1684108456004366300,1.774366455078125,4.559257880073785,5.801557449793815,11.072712722623347
1684108456014384400,1.78438427734375,5.433167204993963,4.761819849291443,9.462648931047319
1684108456024401400,1.7944013671875,5.947421380233764,4.7386026398330925,4.859049804943799
1684108456034419200,1.804419189453125,4.408754014873504,6.262005216044187,1.8261995281159877
1684108456044436500,1.8144365234375,1.078423012727499,9.868630363094805,0.9280085793763398
1684108456054454300,1.824454345703125,-1.1193220093488692,8.504853700694442,-3.2640745691671964
1684108456064472300,1.834472412109375,-2.2274726363420485,2.2598294300675392,-8.101805399489402
1684108456074489300,1.8444892578125,-1.6796972997725008,-1.3507342254757881,-10.230158320909737
1684108456084507400,1.85450732421875,-0.8823626804888248,-3.793373461064696,-11.831630225229263
1684108456094524400,1.8645244140625,-1.0693044712483881,-5.030236392688751,-13.17417529903054
1684108456104542500,1.87454248046875,-1.457272692221403,-4.612876073014736,-12.869717720437048
1684108456114559500,1.8845595703125,-0.505951589786075,-3.3288293654114005,-11.28138236106634
1684108456124577300,1.894577392578125,-0.794953277105093,-1.9338982708126304,-8.86349704298377
1684108456134595300,1.90459521484375,-1.7346540478408337,-1.1261048013567925,-5.7402317512154575
1684108456144612400,1.9146123046875,-2.7219115195214747,-1.527615225470066,-3.3620024439558387
1684108456154630400,1.92463037109375,-2.9936417175114154,-2.2684353458493947,-2.1049246995598074
1684108456164647400,1.9346474609375,-2.3786440255403516,-2.6958237230628725,-1.9364070387631653
1684108456174665500,1.94466552734375,-2.061001386681199,-0.06878185980319976,-0.7927934687227011
1684108456184682500,1.9546826171875,-1.0009966586977244,-2.3170184672325846,-1.8450161645278333
1684108456194700500,1.964700439453125,0.10903664023689925,-2.9735552072942255,-2.4434724715426563
1684108456204717300,1.97471728515625,-0.06885266001708805,-4.022447005110979,-2.566125330004096
1684108456214735400,1.9847353515625,-0.8213602225154638,-6.029942427054047,-2.8215792237147688
1684108456224753400,1.99475341796875,-1.4086954160571097,-6.179796303912997,-3.043223494543135
1684108456234770200,2.004770263671875,-1.8233862242609262,-5.008873286664485,-2.7728993639588353
1684108456244788500,2.01478857421875,-2.6620997326374054,-3.9909231550782915,-2.117546572984755
1684108456254805200,2.02480517578125,-3.7299136730670925,-2.901163924822211,-1.3145838846862314
1684108456264823600,2.034823486328125,-4.445519857212901,-1.6055927836418151,-0.3743436002463102
1684108456274840300,2.04484033203125,-4.888787356081605,0.04851005614697933,0.6944575976550579
1684108456284858400,2.0548583984375,-5.156288538199663,1.364458799445629,1.47392367503196
1684108456294875400,2.06487548828125,-5.036825707951188,2.2336329125374554,1.776518966884911
1684108456304893400,2.0748935546875,-4.850628013557196,2.5722324147075413,2.083798909422755
1684108456314911500,2.084911376953125,-4.50999379068911,3.683619539403915,2.046354144908488
1684108456324928300,2.09492822265625,-4.132025862465799,4.128717176309228,1.9515259897008537
1684108456334946300,2.1049462890625,1.0690025656923652,5.295118332219124,3.1353894448041912
1684108456344963300,2.11496337890625,21.420950310468672,10.27901616758108,8.793308238992095
1684108456354981400,2.1249814453125,11.802379580825567,7.323176065197587,4.699691309897601
1684108456364998400,2.134998291015625,3.4384622910410165,4.487644011715054,1.3810767567694187
1684108456375016400,2.145016357421875,-0.4782464577913284,3.003679127401113,0.41106940283626314
1684108456385034200,2.1550341796875,-2.2284499569416045,1.7053128025442361,-0.16168752251565455
1684108456395051500,2.165051513671875,-1.9067349540770053,0.6885971811890602,-0.29757950951755047
1684108456405069300,2.1750693359375,2.896337527579069,-0.01803425386250019,0.29446283880174157
1684108456415086300,2.18508642578125,6.27742373445034,-0.7669488333702087,1.2030430796086788
1684108456425104400,2.1951044921875,1.2183026080608368,-1.3915981507837771,0.5116033684700727
1684108456435121400,2.205121337890625,0.1256704892495647,-1.3578870198398827,0.5553767514839768
1684108456445139500,2.215139404296875,-0.525263571966812,-1.030923010405898,0.25296558402627706
1684108456455156200,2.22515625,-0.3436952909391373,-0.6528758794665336,-0.14322306054234504
1684108456465174500,2.235174560546875,0.5336719193499535,-0.2688859144747257,-0.3778033853113651
1684108456475192300,2.2451923828125,0.6284690218321979,0.0984036756068468,-0.4080921405911445
1684108456485209300,2.255209228515625,0.21206322640404104,0.429167661845684,-0.1430000654414296
1684108456495227400,2.265227294921875,-0.12193199684098362,0.7529355055868625,0.33304099126011133
1684108456505244400,2.275244384765625,-0.3030406975328922,0.9563286649316549,0.7936556385099888
1684108456515262500,2.285262451171875,-0.4374433227598667,0.9432371281683445,0.9146484548047185
1684108456525279200,2.295279296875,-0.6356324837207794,0.6874333981066941,0.7141767358645796
1684108456535297300,2.30529736328125,-0.7568143197815865,0.2277554471850395,0.3576470247283578
1684108456545314300,2.315314208984375,-0.7631482720434665,-0.3243038503140211,0.13717033637464046
1684108456555332400,2.325332275390625,-0.6541304095722734,-0.7750432924985885,0.12145604989230632
1684108456565350400,2.335350341796875,-0.5308972670048475,-1.0703870057880878,0.30575872431993484
1684108456575367400,2.345367431640625,-0.5110211846679449,-1.2159528300642966,0.6427639430359006
1684108456585385200,2.35538525390625,-0.6634558718003333,-1.236323417919874,0.9401216264963149
1684108456595402500,2.365402587890625,-1.0079611639481036,-1.1555623665094374,1.1893626370415091
1684108456605420300,2.375420166015625,-1.3741272298924625,-1.0002011244058608,1.3263777828544379
1684108456615437300,2.385437255859375,-1.6228005235522984,-0.8100707667380571,1.4750985640302299
1684108456625455400,2.395455322265625,-1.4783020362466572,-0.6717623662441968,1.5401961823627353
1684108456635472400,2.405472412109375,-0.9803940156519413,-0.5396814619630574,1.1262246283441781
1684108456645490400,2.415490478515625,-0.5039378753434867,-0.5071691854149103,0.4074535504266619
1684108456655508200,2.42550830078125,-0.22150442396625875,-0.5969523321926593,-0.06439210041165351
1684108456665525500,2.435525390625,-0.07624152815937996,-0.7763350858747958,-0.2364458263799548
1684108456675543300,2.445543212890625,0.08377776888310909,-0.9634972413867712,-0.30095687699615953
1684108456685560600,2.455560546875,0.31022797868847846,-1.0865706633478402,-0.31085020224004983
1684108456695578400,2.465578369140625,0.5974403349053115,-0.9489403082460165,-0.1884711922839284
1684108456705595400,2.475595458984375,0.893917436138913,-0.5056108500570059,-0.0014800094246864319
1684108456715613400,2.485613525390625,1.103477374485135,0.09026888446807861,0.17926877191364765
1684108456725630200,2.495630126953125,1.1597001969665288,0.5986515373259782,0.30484190173596143
1684108456735648500,2.5056484375,0.9718792852848768,0.7491869667083024,0.17514146285057067
1684108456745666300,2.515666259765625,0.8283441631186753,0.4524889162003994,-0.13838584964424372
1684108456755683300,2.525683349609375,0.8352069615602493,-0.11818448087573051,-0.5331009145289659
1684108456765701400,2.535701416015625,0.7833675417948514,-0.7102385196328163,-0.806115307110548
1684108456775718400,2.545718505859375,0.6305727891784161,-1.0315829356193542,-0.8137374725520611
1684108456785736400,2.555736328125,0.2345663693089038,-0.9706652333199978,-0.5082613645657896
1684108456795753500,2.56575341796875,-0.3390957612544298,-0.544969631499052,0.02100567088872194
1684108456805771300,2.575771240234375,-0.8249993827354163,-0.03640226972401142,0.49395519131571053
1684108456815789600,2.58578955078125,-1.1197094742964953,0.3128665104985237,0.8921639435350894
1684108456825806300,2.595806396484375,-1.2061731943279503,0.5153729501366615,1.2230562323287129
1684108456835826000,2.605825927734375,-0.9763385297160595,0.4556804057180881,1.1594029675856232
1684108456845843000,2.615843017578125,-0.43399924672059714,0.2781236984193325,0.8606737035110592
1684108456855861000,2.625861083984375,0.1816051059067249,0.10561842929124832,0.5831514781162143
1684108456865877800,2.635877685546875,0.4284966307163238,0.055714288437366484,0.4660577150866389
1684108456875895800,2.645895751953125,0.37571488859951496,0.08676116860806941,0.43061786065399643
1684108456885912800,2.655912841796875,0.24054661276228725,0.15886311274468898,0.3277083980605006
1684108456895931000,2.665930908203125,0.20559673380367458,0.28339374777674675,0.10533084452152251
1684108456905949000,2.675948974609375,0.3007178075432777,0.39626141754388805,-0.24015724811851977
1684108456915965700,2.685965576171875,0.3576869914125651,0.5103396321445703,-0.503976819114387
1684108456925984000,2.69598388671875,0.39556459438614544,0.5860299561619758,-0.9825041396737099
1684108456936000800,2.706000732421875,0.4764560672432184,0.6395271530717611,-1.481378082691133
1684108456946018800,2.716018798828125,0.48208676660656924,0.6877735898464917,-1.8319474241182208
1684108456956035800,2.726035888671875,0.40807109780311585,0.744573919954896,-2.091089650952816
1684108456966053600,2.7360537109375,0.15142857882976532,0.7756552869170904,-2.318092233943939
1684108456976071000,2.74607080078125,-0.25837095020115375,0.8037842338144778,-2.3657801600530743
1684108456986088700,2.756088623046875,-0.7081406705707312,0.9515466913521289,-2.1765786076679823
1684108456996106800,2.766106689453125,-0.9271346460860223,1.154988950535655,-2.018632025246322
1684108457006123800,2.776123779296875,-0.9230617706239223,1.3079992455989122,-1.8301146557331085
1684108457016141800,2.786141845703125,-0.6955559873510152,1.4814070165246724,-1.8268594533294438
1684108457026158800,2.796158935546875,-0.28036124821305275,1.5609423255324362,-1.8239166778758167
1684108457036177000,2.806177001953125,0.2107452756732702,1.4689368265300988,-1.7411083385467527
1684108457046194000,2.81619384765625,0.7593208227097987,1.0561521442085504,-1.42962013066411
1684108457056212000,2.8262119140625,0.9888269129544496,0.5175806893140077,-1.2088882985055447
1684108457066229800,2.836229736328125,0.8987818273048848,0.08653495863676071,-1.0925815942004322
1684108457076246800,2.846246826171875,0.6606762510191648,-0.14394962125122546,-0.9127566497087478
1684108457086264800,2.856264892578125,0.48042789348363873,-0.23070845177173613,-0.6166036658629774
1684108457096281900,2.86628173828125,0.4380962337106466,-0.2258738712221384,-0.18580051176995038
1684108457106300000,2.8762998046875,0.19846856242418287,-0.18501988278627396,0.260267139211297
1684108457116316700,2.886316650390625,-0.21853107071127742,-0.18944529801309107,0.7065949024334549
1684108457126335000,2.8963349609375,-0.4899696288108825,-0.36234628846049305,1.00363402146399
1684108457136351700,2.906351806640625,-0.5011638075202703,-0.7493903803259134,1.0695485091373325
1684108457146370000,2.9163701171875,-0.23340773732569067,-1.2462164509028195,1.0095935143902897
1684108457156387800,2.926387939453125,0.2639379366785288,-1.6792448798298836,0.9454393143877386
1684108457166404600,2.936404541015625,0.7025865435749292,-1.9455635741651056,0.945649450007081
1684108457176423000,2.9464228515625,0.8459919749468564,-1.9741151303887365,1.0957613932803272
1684108457186439700,2.956439697265625,0.7135287933498621,-1.8045324707090853,1.3845116996541618
1684108457196458000,2.9664580078125,0.37722770431526004,-1.4742933851271867,1.80110161947757
1684108457206474800,2.976474853515625,0.05311616170294583,-1.0467729059666395,2.3576745950087905
1684108457216492800,2.986492919921875,-0.18986622683890164,-0.6496107401907444,3.03671455104053
1684108457226509800,2.996509765625,-0.32909042700342833,-0.21141864489018916,3.56061333746016
1684108457236527900,3.00652783203125,-0.27634324474334715,0.3739122230917215,4.0362864376321435
1684108457246545700,3.016545654296875,0.17857786704003809,0.8810141884893179,4.191010843136906
1684108457256563000,3.02656298828125,0.9301958602875471,1.1580658737629652,3.780245683944225
1684108457266580700,3.036580810546875,1.4889976177841424,0.8566910636156797,2.456612231361866
1684108457276597800,3.04659765625,1.3999042068362235,0.3329413302779197,1.3431819104000926
1684108457286615800,3.05661572265625,0.9673364542234688,-0.09009937312006949,0.6370192619040608
1684108457296632800,3.0666328125,0.5503969903100282,-0.4552706558734178,0.06161825178414583
1684108457306651000,3.07665087890625,0.21591186465620993,-0.6723895582318306,-0.4423629512444138
1684108457316668700,3.086668701171875,-0.09440094277150929,-0.7689683564990758,-0.8301344806015492
1684108457326686000,3.09668603515625,-0.4270739044368267,-0.6621370442867278,-1.092960364384949
1684108457336703700,3.106703857421875,-0.7818728462576866,-0.3330740167468786,-1.1440414400637149
1684108457346721000,3.116720947265625,-0.9208645528405904,0.09353110113441944,-1.1654901785448193
1684108457356738800,3.12673876953125,-0.7188449468713254,0.5234767616152763,-1.2702046447336672
1684108457366755800,3.136755859375,-0.14892960162088273,0.9295318434208631,-1.5368831122919917
1684108457376774000,3.14677392578125,0.5012199216216803,1.295412735748291,-1.7759981578812003
1684108457386790700,3.156790771484375,0.4832515726022422,1.5591554421156644,-1.562714595901966
1684108457396809000,3.16680908203125,0.156613872513175,1.5544874503046273,-0.9855682034194468
1684108457406826800,3.17682666015625,0.06319733766913414,1.222341654318571,-0.4966930918470025
1684108457416843800,3.18684375,0.015681407126039267,0.7616641709655523,-0.27392040151059627
1684108457426861800,3.19686181640625,-0.20341478665471074,0.32014497706890105,-0.26037878289222716
1684108457436878800,3.20687890625,-0.49408817004561423,-0.06542787320017815,-0.391500194491446
1684108457446897000,3.21689697265625,-0.7669060902070254,-0.33878654917478557,-0.5520338707968593
1684108457456914000,3.226913818359375,-0.9312474151670932,-0.43453883349001404,-0.6648804977759718
1684108457466931700,3.236931640625,-1.0102057280045003,-0.46976562969386576,-0.7859253365188836
1684108457476948700,3.24694873046875,-1.0367740014564246,-0.41566403715014455,-0.925830066293478
1684108457486966800,3.256966796875,-1.045762121488899,-0.2477244685024023,-1.0138944264546037
1684108457496984800,3.26698486328125,-1.0654055641137063,-0.019417817175388336,-1.0088868274256586
1684108457507001900,3.277001953125,-1.1285193882178515,0.14486965870559215,-0.8591805423438549
1684108457517019600,3.28701953125,-1.2405419123977421,0.15757073484659195,-0.5184802685022354
1684108457527037000,3.297036865234375,-1.3458394391715527,0.10781740064024925,-0.10460165346413851
1684108457537054700,3.3070546875,-1.4088508988797663,0.12369359968602657,0.24680647687464952
1684108457547072000,3.317072021484375,-1.1940765138208866,0.13541969331502915,0.5906359886527061
1684108457557089800,3.32708984375,-0.4363590346544981,0.08585399063527584,0.8940481498464942
1684108457567107800,3.33710791015625,0.7144383094102144,-0.04016542164981365,1.2624550535202026
1684108457577124900,3.347124755859375,1.5146439540855585,-0.16866262222528455,1.4945888619199394
1684108457587143000,3.357142822265625,1.858083882024139,-0.31590543980300423,1.5394751746118067
1684108457597160000,3.367159912109375,2.3059669118642807,-0.5109668241322041,1.6334075500234961
1684108457607177700,3.377177734375,2.7460931900978087,-0.689168259075284,1.7681512437731026
1684108457617195000,3.387195068359375,2.401469605332613,-0.58771922442317,1.7304966359004377
1684108457627212800,3.397212890625,1.5376391913563012,-0.1520171923726797,1.5191417038962245
1684108457637229800,3.407229736328125,0.8827777640957385,0.3910574191600084,1.0044771942898632
1684108457647248000,3.417247802734375,0.7707032174676657,0.6312807182520628,0.32224516421854493
1684108457657266000,3.427265869140625,1.0093513031322507,0.535597992041707,-0.28875089089572425
1684108457667283000,3.437282958984375,1.281687138865143,0.42003041566610333,-0.8462365973576903
1684108457677301000,3.447301025390625,1.052898768435791,0.3443278166890144,-1.1940788519084453
1684108457687317800,3.45731787109375,0.36264132588431236,0.4083808944046497,-1.1384420126214623
1684108457697336000,3.467336181640625,-0.2868850970238447,0.5746633434951305,-0.9940823492646217
1684108457707352800,3.477352783203125,-0.7427905436694622,0.7981710701078176,-0.9023343321546912
1684108457717370600,3.48737060546875,-0.9654356621034443,0.9476800790518521,-0.931917277252674
1684108457727389000,3.497388916015625,-1.0708097612448035,0.9819529355317353,-1.116332764405012
1684108457737405700,3.50740576171875,-1.0627052191138266,0.8814736226946115,-1.3539280530810356
1684108457747424000,3.517424072265625,-1.0220984103720634,0.692652009537816,-1.5355924879595637
1684108457757440800,3.527440673828125,-0.9752519035231322,0.5304390018433333,-1.591293916915357
1684108457767458800,3.537458740234375,-0.9082511549830437,0.4516244083255529,-1.4797320690497755
1684108457777475800,3.547475830078125,-0.8804150535523891,0.33793431625962256,-1.3811308250442147
1684108457787494000,3.557493896484375,-0.8934854744624346,0.1080506248742342,-1.2929147814527153
1684108457797511000,3.567510986328125,-0.9908457784961908,-0.12366028193831444,-1.22354664619416
1684108457807528700,3.57752880859375,-1.0881342594027519,-0.3115758861660957,-1.0926070209026335
1684108457817546800,3.587546630859375,-1.1685292539797723,-0.41154374234974384,-0.8715592546626925
1684108457827563800,3.597563720703125,-1.2670353670477867,-0.40033085893988607,-0.4995554955407977
1684108457837580800,3.607580810546875,-1.388469205108285,-0.32998248047232626,-0.10528057563900947
1684108457847597800,3.617597900390625,-1.4678408479869365,-0.2660503987878561,0.39868893695175645
1684108457857616000,3.627615966796875,-1.4301836097657679,-0.28612112691402436,0.8555334180131554
1684108457867633000,3.6376328125,-1.1162416520554572,-0.47052375458478923,1.3185840602383017
1684108457877651000,3.64765087890625,-0.5016074596345425,-0.8341092294514179,1.7690820948824286
1684108457887668000,3.65766796875,0.059569721756502984,-1.2601076136112213,2.074177971379459
1684108457897685800,3.667685791015625,0.35814649868309495,-1.6042898843497038,2.1937027609482405
1684108457907703800,3.677703857421875,0.4048644107162952,-1.8457769197672604,2.3047920228660104
1684108457917720800,3.687720947265625,0.08998298019878566,-1.9565531702131032,2.2972928992822763
1684108457927739000,3.69773876953125,-0.5708020649570972,-1.6980325824081897,2.0648200681865214
1684108457937756000,3.707755859375,-1.1873971091222018,-0.9548802196890115,1.5337278631314635
1684108457947774000,3.71777392578125,-1.4183376891493797,-0.21434651503562926,0.941149215978384
1684108457957791000,3.727791015625,-1.195157952382043,0.29524317552447316,0.4307908791333437
1684108457967809000,3.73780908203125,-0.6119025389673188,0.5073848739922047,-0.14569529587477445
1684108457977826800,3.747826904296875,0.16514263140559196,0.5287433038413525,-0.8659276785165071
1684108457987844000,3.757843994140625,0.671977981756255,0.4212643413752317,-1.532365342606604
1684108457997862000,3.76786181640625,0.5036900380622595,0.3986111955404281,-1.7825293132156133
1684108458007878700,3.777878662109375,0.34984153860919176,0.627990444535017,-1.6657690199241042
1684108458017897000,3.78789697265625,0.6204904441684485,1.162838494992256,-1.210166647878289
1684108458027913700,3.797913818359375,1.3041852402687073,1.6893968560099601,-0.3161921477898955
1684108458037932000,3.80793212890625,2.0287632508993148,1.7158458869963884,0.6835261615350842
1684108458047948800,3.81794873046875,2.501137017264962,1.2444015104353428,1.5071975836023688
1684108458057966800,3.827966796875,2.6239929970830675,0.5242945077389478,2.0175828084543346
1684108458067985000,3.83798486328125,2.3922101940780878,-0.07676233716309071,2.1863436303570865
1684108458078002000,3.848001953125,1.9514567238569258,-0.5537801299422979,2.0773490026310086
1684108458088020000,3.85802001953125,1.387469672676921,-0.9648130001604557,1.6648595038637517
1684108458098036700,3.86803662109375,0.732104314482212,-1.334805419459939,1.119919390720129
1684108458108054800,3.8780546875,-0.046152131376601756,-1.6132055967330932,0.5691244140684605
1684108458118071800,3.88807177734375,-0.7653495814800262,-1.8945985260814426,0.15830401755720375
1684108458128089900,3.89808984375,-1.3729291061490774,-2.143938028565049,-0.10555062475204467
1684108458138107000,3.90810693359375,-1.84656134814322,-2.277480237570405,-0.17424714435935018
1684108458148125000,3.918125,-2.168265245091915,-2.124962109938264,-0.09887509251087903
1684108458158142700,3.928142822265625,-2.2457482977449894,-1.5167244136214255,0.21626345457285642
1684108458168160000,3.938159912109375,-1.9550572325669229,-0.427425786614418,0.8095110870286821
1684108458178177800,3.948177734375,-0.8834411233752966,0.7904214788943529,1.3771809183746575
1684108458188195000,3.958195068359375,0.7212287002027035,1.7650836728960275,1.831031186056137
1684108458198212900,3.968212890625,1.139485091933608,1.975458946213126,1.86245099119246
1684108458208230000,3.97822998046875,0.6089812081605196,1.0963508836060762,1.3960311647951602
1684108458218248000,3.988248046875,0.20599190713372081,-0.1446843652665615,0.7599278486922383
1684108458228265700,3.998265625,-0.02486906831860542,-0.9197948777824639,0.31147271805256604
1684108458238283000,4.008282958984375,-0.42468730156123635,-1.263757952812314,0.011321019959449768
1684108458248300800,4.01830078125,-0.9294529329657554,-1.085593927270174,-0.25055764610171316
1684108458258317800,4.02831787109375,-1.294564009964466,-0.564503768530488,-0.479369908863306
1684108458268335900,4.0383359375,-1.2349170582532882,0.10442717368006706,-0.7749497689962387
1684108458278353000,4.048352783203125,-0.677821520152688,0.68417761118114,-1.140490469583869
1684108458288371000,4.058370849609375,0.2741419353067875,1.0510305634111166,-1.7247005168423055
1684108458298387700,4.0683876953125,1.2322434551298618,1.2283417715162037,-2.4743773128941653
1684108458308405800,4.07840576171875,1.199303308558464,1.2594208003908396,-2.6685034621998667
1684108458318424000,4.088424072265625,0.6116419518023729,1.227056407880783,-2.3069258200243112
1684108458328440800,4.09844091796875,0.09611293432116508,1.1092138723105192,-1.85151254080981
1684108458338459000,4.108458984375,-0.3191208947181701,0.8685036664843558,-1.543700975613296
1684108458348476000,4.118475830078125,-0.7165805821359157,0.44733167956769465,-1.2922057564005256
1684108458358493700,4.12849365234375,-1.1689221988201142,-0.012497078001499176,-1.0506146760866046
1684108458368511000,4.138510986328125,-1.5899392874360083,-0.3794412156462669,-0.8922387623369693
1684108458378528800,4.14852880859375,-1.9514801047325132,-0.6129734926670789,-0.786212044505775
1684108458388546000,4.158546142578125,-2.1827064428985117,-0.7399567815482616,-0.7341220840454101
1684108458398563800,4.168563720703125,-2.062795868882537,-0.8028694570571183,-0.6435954254239797
1684108458408582000,4.178581787109375,-1.4834557657480238,-0.7279308281898498,-0.39865503468215463
1684108458418599000,4.188598876953125,-0.413221904695034,-0.6039777007848024,-0.017322013939917086
1684108458428616700,4.19861669921875,0.8102046222507954,-0.5365045854926109,0.3240390618979931
1684108458438634000,4.208634033203125,1.375283560320735,-0.4275122958540916,0.5636889450162649
1684108458448651800,4.21865185546875,1.314808925613761,-0.07554594711065292,0.7991708948001265
1684108458458669000,4.2286689453125,1.293545772832632,0.5535428140550851,1.1198477867886423
1684108458468686800,4.238686767578125,1.2545265986084937,1.287725103855133,1.2806886293470858
1684108458478705000,4.248704833984375,1.346357325565815,1.86888540815413,1.0696396945521234
1684108458488722000,4.258721923828125,2.023632317751646,2.0703771177917716,0.5849570662334561
1684108458498740000,4.268739990234375,2.6853806549817323,1.5512030218064785,-0.03126782944500446
1684108458508757000,4.278757080078125,2.453447045329213,0.3892915785312652,-0.4155462559893727
1684108458518775000,4.288775146484375,1.2254127323269843,-0.4539408685743809,-0.3347118470817804
1684108458528791800,4.298791748046875,0.27085520525369794,-0.6051636956989764,-0.18839023600220678
1684108458538809900,4.308809814453125,0.2808282812029123,-0.09356558792591095,-0.20610563317388295
1684108458548827000,4.318826904296875,1.2219774971812962,1.339315005838871,-0.4089405741140246
1684108458558845000,4.328844970703125,1.8566472733497619,2.8406512961924073,-0.670574033242464
1684108458568863000,4.338863037109375,1.9667899020671844,3.4379023190706968,-0.6704059831991791
1684108458578879700,4.348879638671875,2.126428675359487,2.1449849072694778,-0.8025561533242463
1684108458588898000,4.35889794921875,1.6050702210724352,-0.14381927286982535,-1.1538532245039939
1684108458598914800,4.368914794921875,0.447606989377737,-1.547965939581394,-1.0119137740314006
1684108458608932900,4.378932861328125,-0.5610182645022869,-2.3102093717396257,-0.42166356982588765
1684108458618950000,4.388949951171875,-0.9266846372961998,-2.527951958954334,0.4107157670930028
1684108458628967700,4.3989677734375,-0.5690110168218613,-2.2385931652933357,1.315935299295187
1684108458638985000,4.40898486328125,-0.3477659744441509,-1.9847095896393059,1.8844868819117544
1684108458649002800,4.419002685546875,-1.4182114324212074,-2.1113678843498227,1.7253911294549702
1684108458659020800,4.429020751953125,-2.5172610535919664,-2.3523925629526374,1.2635071929216384
1684108458669037800,4.439037841796875,-2.689222717362642,-2.4834762728899715,1.1052928994745015
1684108458679056000,4.449055908203125,-1.8065058166086672,-1.9392244342714546,1.3553010949999094
1684108458689073000,4.459072998046875,-0.13129531599455513,-0.5298503883004189,1.5191086784094572
1684108458699091000,4.469091064453125,0.4132826949715614,0.7134726792484521,1.3531617448836564
1684108458709108000,4.47910791015625,-0.3415092521369457,1.3051970476597547,0.9005033173352479
1684108458719126000,4.4891259765625,-0.8636416134059429,1.2915882090240716,0.25797084496766326
1684108458729143800,4.499143798828125,-0.8863239853352308,0.9429045352131128,-0.5430024230793118
1684108458739160800,4.509160888671875,-0.5165045845150947,0.652259793394804,-1.3632707587048412
1684108458749179000,4.519178955078125,0.024622418347466736,0.6564911473542452,-1.9786741088673472
1684108458759196000,4.52919580078125,0.31964871798455713,0.9273749576479196,-2.2444585501953958
1684108458769214000,4.5392138671875,0.362657838627696,1.223978900131583,-1.9969778273209928
1684108458779230700,4.549230712890625,0.7138017650723457,1.1380518442600964,-1.0054369792327285
1684108458789249000,4.5592490234375,1.276603990381956,0.4447843331724405,0.009756547121703624
1684108458799265800,4.569265869140625,1.8030092066645622,-0.016662380987405776,0.1858911126628518
1684108458809284000,4.5792841796875,2.218057157742977,0.18489070344865322,0.1918164110586047
1684108458819302000,4.589302001953125,1.9621499673068523,0.6848521494418383,0.18519991552829743
1684108458829318700,4.599318603515625,1.0798504151821136,0.9577052139818668,0.1838414866566658
1684108458839336700,4.609336669921875,-0.06112696113586425,0.7876467534840107,0.2911126515910029
1684108458849353500,4.619353515625,-0.9882119959264993,0.10864449911415576,0.22725831131786106
1684108458859371800,4.629371826171875,-1.3342080380886792,-0.7487199337184429,0.09264292012304066
1684108458869388500,4.639388427734375,-1.233884208074212,-1.2821809137314557,-0.0018134791627526282
1684108458879406600,4.649406494140625,-0.9386913014322519,-1.5496294888794422,-0.10154635754674672
1684108458889424600,4.659424560546875,-0.6955833868145942,-1.4891244590342043,-0.029728783309459685
1684108458899441700,4.669441650390625,-0.5576227768450975,-1.0820224985241889,0.260707284194231
1684108458909459700,4.679459716796875,-0.38178047224879263,-0.6344312912374734,0.6581371609956026
1684108458919476700,4.689476806640625,0.07936053696274757,-0.19982991390526295,1.0643187917903065
1684108458929494500,4.69949462890625,0.5731506008446217,0.30265140595436096,1.2764394474700091
1684108458939511600,4.709511474609375,0.7080547458529471,0.8589660228103398,1.087566688647866
1684108458949529600,4.719529541015625,0.8051999458312988,1.101784014570713,0.48741643719673156
1684108458959546600,4.729546630859375,0.738482617342472,0.7214484804332256,-0.3306806918695569
1684108458969564700,4.739564697265625,0.33669805246293544,0.016252046620845794,-0.9779618200689554
1684108458979582500,4.74958251953125,-0.09777999075055122,-0.5612275233387947,-1.3115426172941922
1684108458989599700,4.759599853515625,-0.48641222859024996,-0.8602502174019813,-1.409754569721222
1684108458999617500,4.769617431640625,-0.9403653721243143,-0.7869611093074083,-1.2271502236440777
1684108459009634800,4.779634765625,-1.3187012568771839,-0.43645957241952416,-0.6579878156527876
1684108459019652600,4.789652587890625,-1.3647493068248033,-0.06752689130604267,0.10719546934962272
1684108459029669600,4.799669677734375,-0.9226882611364126,0.2725438524603844,0.6774278446599841
1684108459039687700,4.809687744140625,0.023885900216863955,0.5212199225991964,0.9708949504226445
1684108459049705700,4.819705810546875,1.088723457467556,0.5898059675693511,0.991095734669268
1684108459059722800,4.82972265625,1.67966164393723,0.4938111066699028,0.9872019421011209
1684108459069740500,4.839740478515625,1.691157435941696,0.2825549588650465,1.0590665703505278
1684108459079757600,4.849757568359375,1.491810921639204,0.008912789773941039,1.0444520618036388
1684108459089775600,4.859775634765625,1.1846423305213452,-0.1796364361822605,0.9022989685803652
1684108459099792600,4.869792724609375,0.5692214447021484,-0.21495734041035175,0.7159373157963156
1684108459109810700,4.879810791015625,-0.19579437477886677,-0.19784663113355636,0.5087517784312368
1684108459119827700,4.88982763671875,-0.5685556742697954,-0.21347148576676844,0.19322423202991484
1684108459129845500,4.899845458984375,-0.5620739110350609,-0.3054635407656431,-0.16843115155696867
1684108459139863800,4.90986376953125,-0.28490415233969685,-0.3003548194497824,-0.5712897754088044
1684108459149880600,4.919880615234375,0.14396423429846764,-0.07152502103149891,-0.9729846161782741
1684108459159898600,4.929898681640625,0.6109282505750656,0.2696522226721048,-1.1696502208337187
1684108459169915600,4.93991552734375,0.8710521819233894,0.6523784513384103,-0.9943807476893067
1684108459179933400,4.949933349609375,0.5220464365512132,0.7777385229319334,-0.6588184212580322
1684108459189950700,4.95995068359375,-0.2499292850703001,0.3690244510501623,-0.31526480381190775
1684108459199968500,4.969968505859375,-0.9365916988044977,-0.27570670040547846,0.07990706492960453
1684108459209985800,4.97998583984375,-1.3366712133318186,-0.5395487754940986,0.5310749616593122
1684108459220003600,4.990003662109375,-1.305655312821269,-0.6030915656000375,0.6851105081170797
1684108459230021600,5.000021728515625,-0.7713245642364025,-0.4811614684551954,0.6642655807480216
1684108459240038700,5.01003857421875,0.009399075453542172,-0.2472498367279768,0.5753077788785099
1684108459250056700,5.020056640625,0.6082827410349622,-0.09298281960189342,0.2978229628846049
1684108459260073700,5.03007373046875,0.6555857229471206,0.028749124622344968,-0.10421440771222114
1684108459270091500,5.040091552734375,0.49063481472134585,0.160038001742959,-0.4175944206908345
1684108459280108800,5.05010888671875,0.34826574065983296,0.25138708266317844,-0.42254532109647985
1684108459290126600,5.060126708984375,0.1039502038180828,0.2520557757049799,-0.03702244744896888
1684108459300144600,5.07014453125,-0.17861175104333088,0.07156067686676978,0.334143691805005
1684108459310161700,5.08016162109375,-0.333291458889842,-0.16280805097818374,0.4838450084507465
1684108459320179700,5.0901796875,-0.3047375463123433,-0.3455038747310638,0.4788315642029047
1684108459330196700,5.10019677734375,0.011340911970008164,-0.4260626815676689,0.388896733994782
1684108459340214800,5.11021484375,0.6132242525577545,-0.34606793835461136,0.303255509327352
1684108459350231600,5.1202314453125,1.195869826978445,-0.18777356540858745,0.3739940561562776
1684108459360249600,5.13024951171875,1.2534990091264246,-0.15756605867147444,0.6264262639582157
1684108459370266600,5.1402666015625,0.8072206380039453,-0.2220131041407585,1.028832175606489
1684108459380284700,5.15028466796875,0.18119477154016495,-0.304091083368659,1.4362477321103215
1684108459390302700,5.160302734375,-0.31414953604638574,-0.5329010080426931,1.713304678080976
1684108459400319500,5.170319580078125,-0.6866027925014495,-0.85292323551476,1.731917316353321
1684108459410337800,5.180337890625,-0.7787579291075467,-1.1171171927809715,1.5591273850649594
1684108459420354600,5.1903544921875,-0.5409942615946755,-1.1836164946049452,1.315580494508147
1684108459430372600,5.20037255859375,0.0496311691313982,-0.9099684802949428,1.0745283433765171
1684108459440389600,5.2103896484375,0.8869640368044376,-0.42636955555975437,0.7034107194393873
1684108459450407700,5.22040771484375,1.5633219141453503,-0.06355740315318108,0.2718704832434654
1684108459460425700,5.23042578125,1.453430629840493,0.15522738659083843,-0.0316670578956604
1684108459470442500,5.2404423828125,0.6940987012147903,0.2640221078306436,-0.1237383156105876
1684108459480460500,5.25046044921875,-0.10807455373909323,0.2205196507126093,-0.07985708830803633
1684108459490477600,5.2604775390625,-0.7385474992722273,0.006312251886725425,-0.009036708414554595
1684108459500495600,5.27049560546875,-1.088273960134387,-0.3095885117411613,0.14784750547260045
1684108459510512600,5.2805126953125,-1.1322399431109427,-0.46988194954991336,0.4193497399255633
1684108459520530700,5.29053076171875,-0.7276677933394908,-0.477969394415617,0.5577557555750012
1684108459530547700,5.300547607421875,0.04685998738501221,-0.4630494731813669,0.5525757225885987
1684108459540565800,5.310565673828125,0.8690484408855438,-0.28628654660880565,0.3701546241238713
1684108459550583600,5.32058349609375,1.3564648780822752,0.07916004595458508,0.04508884952664375
1684108459560600600,5.3306005859375,1.1693459771901369,0.3516448617041111,-0.2318424242377281
1684108459570618600,5.34061865234375,0.6892582754462957,0.5212362892121076,-0.3444476436764002
1684108459580635600,5.3506357421875,0.3958113722214475,0.6570476121932268,-0.3910147490620613
1684108459590653700,5.36065380859375,0.4184417217025533,0.6316045433789491,-0.5455635057389736
1684108459600670500,5.37067041015625,0.4491752616077661,0.4404495188385248,-0.8365461012095212
1684108459610688800,5.380688720703125,0.29812190929856147,0.08727087169587612,-0.8555468620166182
1684108459620705500,5.39070556640625,-0.19412322669625282,-0.3965805664956569,-0.4818006431415677
1684108459630723800,5.400723876953125,-0.7986667446702719,-0.7908101859509944,-0.06171645146161318
1684108459640741600,5.41074169921875,-1.2643366294831038,-0.9058318188816309,0.21925299177765845
1684108459650758700,5.420758544921875,-1.4587977098315954,-0.8472212244808673,0.41143385223448276
1684108459660776700,5.430776611328125,-1.3073457501262427,-0.5449632017582655,0.7204422260001301
1684108459670793500,5.44079345703125,-0.6403180842537433,-0.2116834333062172,1.0468266819804906
1684108459680811500,5.4508115234375,0.6497907729327679,-0.002049333745241165,1.2837199598670006
1684108459690828500,5.46082861328125,1.5170868171930312,0.11573007346093654,1.4021496476754545
1684108459700846600,5.4708466796875,1.0289783060789108,0.19026070604920386,1.2551856470391154
1684108459710864600,5.48086474609375,0.23339491437673568,0.21259587197601795,0.9361129753768443
1684108459720881700,5.490881591796875,-0.2880523141723126,0.200946935236454,0.6759273769691586
1684108459730899500,5.5008994140625,-0.7772059504251927,0.19395722247958183,0.4331652070492506
1684108459740916700,5.510916748046875,-1.0465595554769038,0.1580915438503027,0.15242138925939797
1684108459750934500,5.5209345703125,-0.8774790001004934,0.10770400339365005,-0.2478939798504114
1684108459760951600,5.53095166015625,-0.41560211436245587,0.10869009182155132,-0.6667188191190362
1684108459770969600,5.540969482421875,0.11721998322512954,0.2579460027873516,-0.9986725996643304
1684108459780987600,5.550987548828125,0.5399661241233349,0.5945961244553327,-1.19186935916543
1684108459791004700,5.561004638671875,0.5990028349816798,0.9840186358898878,-1.356534143926203
1684108459801022500,5.5710224609375,0.060189981679851186,1.2410709047079085,-1.4278846851736307
1684108459811039700,5.581039794921875,-0.7412287011802196,1.217576631873846,-1.3218205579414963
1684108459821057500,5.5910576171875,-1.3657950164854527,0.9934323609232902,-1.0946174839422107
1684108459831074800,5.60107470703125,-1.7964391806244848,0.8632312790393829,-1.0581550084635614
1684108459841094000,5.611093994140625,-2.1628841365754603,0.555702622437477,-1.0196765169873834
1684108459851110700,5.621110595703125,-2.36521989582181,0.1742377920091152,-0.8085235372960567
1684108459861128700,5.631128662109375,-2.2411562937796115,-0.017201310169696806,-0.3967798884600401
1684108459871146800,5.641146728515625,-1.591232249855995,0.05553776282668113,0.05816022028475999
1684108459881163500,5.65116357421875,-0.17528525523543356,0.40754444358050823,0.6617696722790598
1684108459891181800,5.661181884765625,1.8395418247699737,0.9790350022584199,1.3523936831206083
1684108459901198600,5.671198486328125,3.1135388475239276,1.5290274303555487,1.876871438471973
1684108459911216600,5.681216552734375,2.93835413005352,1.8251660934150218,1.8830299611017107
1684108459921233700,5.691233642578125,1.7949018880546093,1.7844845389366149,1.259173547631502
1684108459931251700,5.701251708984375,0.6387970121663064,1.4851736755818128,0.10028115991652012
1684108459941268700,5.711268798828125,-0.07105908402018249,1.0256716657489537,-1.0580594391345977
1684108459951286800,5.721286865234375,-0.46064533464908597,0.538492544439435,-1.716079403491318
1684108459961304600,5.7313046875,-0.6713293085891753,0.06365735639631748,-2.2149475012898443
1684108459971321900,5.74132177734375,-1.1518530636627227,-0.3410837202012539,-2.476403265763819
1684108459981339600,5.751339599609375,-1.822891280350834,-0.5814508116781711,-2.2015885457620024
1684108459991356700,5.761356689453125,-2.5418156491339206,-0.646353199699521,-1.5875500542119145
1684108460001374700,5.771374755859375,-3.2157319785416125,-0.5780670144587755,-0.9862395268097519
1684108460011391700,5.781391845703125,-3.5108220093309876,-0.5532581518948078,-0.660780953502655
1684108460021409800,5.791409912109375,-3.4059470918834207,-0.7148702710866928,-0.4889174894094467
1684108460031426600,5.801426513671875,-3.0392122130751607,-1.060847024026513,-0.4639560666322708
1684108460041444900,5.81144482421875,-2.7501287292242047,-1.4686211847096682,-0.5412514877587556
1684108460051462700,5.821462646484375,-2.608454651689529,-1.7109055079847573,-0.7855261080682278
1684108460061479700,5.831479736328125,-2.313107431268692,-1.6838643563240765,-0.9847989726126194
1684108460071497700,5.841497802734375,-1.7621651551008224,-1.374462891587615,-1.082205453875661
1684108460081514500,5.851514404296875,-1.2676993839144706,-0.7673428011238574,-1.1551964558064938
1684108460091532800,5.86153271484375,-0.7868004388529807,0.054556935095787046,-1.3508955535173415
1684108460101549600,5.871549560546875,-0.1824258477050811,0.8630570915162563,-1.3955676389366387
1684108460111567600,5.881567626953125,1.190923602747917,1.65129479663074,-1.624655211508274
1684108460121585700,5.891585693359375,3.442832761210203,2.5009283429503437,-2.187692999139428
1684108460131602700,5.901602783203125,4.411497760623694,3.2737463606148958,-2.5944553524315355
1684108460141620700,5.911620849609375,4.141403054881096,3.728654028394818,-2.6437235334694384
1684108460151637800,5.9216376953125,3.8521851309955117,3.6138732184827327,-2.2250316729307174
1684108460161655600,5.931655517578125,3.7265550102889535,2.912386160582304,-1.8488874530032275
1684108460171672800,5.9416728515625,3.6064006906449793,2.0482529642671343,-1.6950938986077904
1684108460181690600,5.951690673828125,3.352991746765375,1.0680237837880848,-1.7054615633651613
1684108460191709000,5.961708984375,2.728200975054502,-0.11118190863728522,-1.7818810784399508
1684108460201725700,5.9717255859375,1.3294763333916664,-1.208809388050437,-1.4332543955132364
1684108460211743700,5.98174365234375,-0.6751193485219031,-1.828914047771692,-0.5177957933694124
1684108460221760800,5.9917607421875,-2.496197222775221,-2.100502791464329,0.8064587137207389
1684108460231778600,6.001778564453125,-3.386796985733509,-2.2566496309876443,1.9932763424545525
1684108460241795800,6.0117958984375,-3.4128725072324273,-2.3920564648211,2.8810443891182542
1684108460251813600,6.021813720703125,-2.710280702960491,-2.4539070640563962,3.859422681033611
1684108460261831000,6.031830810546875,-1.7539491154193878,-2.3162767089545726,4.864583473673463
1684108460271848700,6.0418486328125,-1.2161340318500995,-2.049608470529318,5.512563397791982
1684108460281866800,6.05186669921875,-0.8149696446955204,-1.8721692521303892,5.466656217619777
1684108460291883800,6.0618837890625,-0.3163619513988495,-1.9597955131351947,5.120092604702711
1684108460301901800,6.07190185546875,0.5153203796992079,-2.2140929302871224,4.696039217130839
1684108460311918800,6.0819189453125,1.6121581335067747,-2.4018261636853215,4.210412585960328
1684108460321936600,6.0919365234375,2.437732174324989,-2.255691015088558,3.4547266126215455
1684108460331953700,6.10195361328125,2.5501427479743954,-1.6750819149315357,2.7174524942860008
1684108460341971700,6.1119716796875,2.1942437359571456,-0.8778507560223341,1.9318483525454997
1684108460351989800,6.12198974609375,1.682983481836319,-0.04979425073862075,1.130937628340721
1684108460362006800,6.1320068359375,1.2357131770670413,0.6826853267967701,0.40631928569972514
1684108460372024800,6.14202490234375,0.9748913265824317,1.2062404143452643,-0.08113163828849793
1684108460382041600,6.15204150390625,0.7964777101933955,1.5494494561374186,-0.6174082602441311
1684108460392060000,6.162059814453125,0.8952022883176803,1.6618337263017893,-1.2371429176092148
1684108460402076700,6.17207666015625,1.2268553323507307,1.5947750370293854,-1.974483379179239
1684108460412094700,6.1820947265625,1.255617316454649,1.4428420158088207,-2.493805943724513
1684108460422111700,6.19211181640625,0.7543897960484027,1.3303338270038365,-2.2868165134534237
1684108460432129500,6.202129638671875,0.15896423503160476,1.2041770520746706,-1.8579829058676958
1684108460442147800,6.21214794921875,-0.12322539765238762,0.8937111729770898,-1.7903768118456005
1684108460452164600,6.22216455078125,-0.18260580738186835,0.26951661359369755,-1.9096607783958315
1684108460462182700,6.2321826171875,-0.12865796236144378,-0.442373764899373,-1.44658266364187
1684108460472199700,6.24219970703125,-0.16547347079515456,-0.7526245399415492,-0.46663785306215283
1684108460482217700,6.2522177734375,-0.35517537391781806,-0.7699561984926462,0.28987404970675706
1684108460492234800,6.26223486328125,-0.5901975972354412,-0.7107844630777835,0.9881105813786387
1684108460502252800,6.272252685546875,-0.7825543987810611,-0.7141624150782823,1.5495564236432313
1684108460512269800,6.282269775390625,-0.8230898227870463,-0.8736351841539144,1.6936314248397946
1684108460522287600,6.29228759765625,-0.7424258020102977,-1.1388847879528998,1.4638304433017968
1684108460532305700,6.3023056640625,-0.5664706846892833,-1.1345300998747347,1.1418766632452606
1684108460542322700,6.31232275390625,-0.33504677812457084,-0.6410860729515552,0.9284165756553411
1684108460552340700,6.3223408203125,-0.02183189257979393,-0.13645663514733314,0.6461594306930899
1684108460562357800,6.332357666015625,0.33492052139639855,-0.03985036435127258,0.22612316980808972
1684108460572375800,6.342375732421875,0.46820904790163037,-0.19992460645139215,-0.18431114999502896
1684108460582392600,6.352392578125,0.30450200225710866,-0.25705109977424145,-0.5275123007416724
1684108460592411000,6.362410888671875,0.042274961149692536,0.012956512206792831,-0.6619701632872224
1684108460602428700,6.3724287109375,-0.24991642558872698,0.5593658211201429,-0.6571370440423489
1684108460612446000,6.382446044921875,-0.38059038568139075,1.142434004867077,-0.6102677408397197
1684108460622463700,6.392463623046875,-0.17543430831730364,1.4326473695307969,-0.6709712158665061
1684108460632480500,6.40248046875,0.3793699039757252,1.3899673347115515,-0.9152084267750382
1684108460642498800,6.412498779296875,0.9995850383341311,0.8730623527020216,-1.1222501717552542
1684108460652515600,6.422515625,1.1312205369353294,0.10414952578246593,-0.833782773976028
1684108460662534000,6.432533935546875,0.6427864471286535,-0.46572658343613144,-0.36214579745233055
1684108460672550700,6.442550537109375,-0.13262333146161398,-0.7665934440612793,-0.07569032401740551
1684108460682568700,6.452568603515625,-0.8773913218170404,-0.8004559661746025,0.06101853232532739
1684108460692586800,6.462586669921875,-1.4412041854739188,-0.5489677612245083,0.17039280701875686
1684108460702603800,6.472603759765625,-1.6922013920366763,-0.09480711241960525,0.31686522474586964
1684108460712621600,6.48262158203125,-1.6507213806569576,0.2766770067423582,0.44080666171312327
1684108460722638600,6.492638671875,-1.1682821473509073,0.5628887345492839,0.4983399822711944
1684108460732656600,6.50265673828125,-0.06284775704648346,0.5839169095307588,0.6889478943228721
1684108460742673700,6.512673583984375,1.3382120130330324,0.2296989824682474,0.9837193606823682
1684108460752691700,6.522691650390625,2.072726895788312,-0.21921675142049787,1.1554352329984308
1684108460762709500,6.53270947265625,1.7859043426066636,-0.5854840127170086,1.138466562540829
1684108460772726800,6.542726806640625,1.0460393309950828,-0.757615772357583,1.0317544927939772
1684108460782744600,6.55274462890625,0.26506487661553546,-0.6373299352884292,0.8241641740202903
1684108460792761900,6.562761962890625,-0.27034606842147185,-0.28084932399094104,0.3725532096982002
1684108460802779600,6.572779541015625,-0.4266430752715096,0.0522889901638031,-0.32776012824773787
1684108460812797000,6.582796875,-0.4389584034979343,0.20325053600370882,-0.6963850585862994
1684108460822814700,6.592814697265625,-0.6287450622946024,0.210641230776906,-0.7367045017540454
1684108460832831700,6.602831787109375,-1.0256155516475438,0.20694354530274867,-0.723180126531422
1684108460842849500,6.612849609375,-1.423150642389059,0.22483751391172407,-0.5452589698344469
1684108460852867600,6.62286767578125,-1.636843077430129,0.07717968579232692,-0.2550438516050577
1684108460862884600,6.632884521484375,-1.6179273645579815,-0.176774617010355,-0.26441052262634035
1684108460872902400,6.64290234375,-1.3106401154965162,-0.38893852730989453,-0.44278293022215365
1684108460882919400,6.65291943359375,-0.6428975062876939,-0.47951779290139673,-0.6972077731460332
1684108460892937500,6.6629375,0.5066127571085468,-0.4398819480836391,-0.6568392301395535
1684108460902954500,6.67295458984375,1.8231266965419053,-0.24921675288677214,-0.346286841802299
1684108460912972500,6.68297265625,2.2845891927927733,0.013967150554060935,-0.04894698625952005
1684108460922990600,6.692990478515625,1.6729823123037815,0.3283382203966379,0.20118015947043894
1684108460933007400,6.70300732421875,0.7235662032395601,0.5283025743365287,0.31092443652004004
1684108460943025700,6.713025634765625,-0.13927808577623219,0.47381811995506284,0.16072481496334076
1684108460953042400,6.72304248046875,-0.7637094130575657,0.3294587488591671,-0.013636018903553485
1684108460963060700,6.733060791015625,-1.0441560014665126,0.4033002301394939,0.04501286168098449
1684108460973077500,6.743077392578125,-1.0535878466784954,0.61591831394732,0.12609569239169358
1684108460983095300,6.75309521484375,-0.773882432025671,0.8468436233401297,0.12806436211615801
1684108460993112600,6.763112548828125,-0.024693711751699446,1.003561540749669,-0.01839928778260946
1684108461003130400,6.77313037109375,0.9681944592922925,0.9781371766358613,-0.27368805405944585
1684108461013148700,6.783148681640625,1.238005671918392,0.8015157043606043,-0.4156973548978567
1684108461023165400,6.79316552734375,1.0202180765181779,0.4685732050389051,-0.43348494052290915
1684108461033183500,6.80318359375,0.786394707596302,0.13144903611838818,-0.3590408171743154
1684108461043200500,6.813200439453125,0.42468847060501574,-0.0994189901292324,-0.14617927999943495
1684108461053218600,6.823218505859375,-0.10793543752934782,-0.18345161055624484,0.1690288251891732
1684108461063235600,6.833235595703125,-0.6516542287170887,-0.18759528623223304,0.4879866383001208
1684108461073253400,6.84325341796875,-1.0435609581828116,-0.1783908200353384,0.6981348248630762
1684108461083271400,6.853271484375,-1.1832897468686103,-0.19755086305737493,0.8146464040905237
1684108461093288400,6.863288330078125,-0.9535153610765933,-0.28208967944085594,0.7079764199197291
1684108461103306500,6.873306396484375,-0.45719837253298606,-0.4239192397981882,0.3316071590647101
1684108461113323500,6.883323486328125,-0.18513152646720407,-0.4661071071863174,-0.12113368607014417
1684108461123341600,6.893341552734375,-0.3087807024896145,-0.39294600938558577,-0.3294245543286204
1684108461133358600,6.903358642578125,-0.5022392912646755,-0.2231581825226545,-0.47773587792068717
1684108461143376600,6.913376708984375,-0.6128723703801632,-0.12390168947875499,-0.6549886338368058
1684108461153393400,6.923393310546875,-0.7185217793315649,0.036706221106648444,-0.7295426473006605
1684108461163411700,6.93341162109375,-0.7787427315384149,0.24795652369260787,-0.7212853988260031
1684108461173429500,6.943429443359375,-0.7173924830406904,0.34039690698087216,-0.8147244377627968
1684108461183446500,6.953446533203125,-0.49736733784675596,0.2766992185741663,-0.9684835053667425
1684108461193464600,6.963464599609375,-0.22734686638414858,0.16653730063438416,-1.0257990915209054
1684108461203481300,6.9734814453125,-0.02219367509689182,0.24948154130280017,-0.808155580766499
1684108461213499600,6.983499755859375,0.043073418051004404,0.4888344873011112,-0.41191666731536386
1684108461223516400,6.993516357421875,0.02277647995352745,0.6846732857435941,-0.03245294757634401
1684108461233534500,7.003534423828125,0.011292378386855125,0.6882891381531954,0.3079784461960196
1684108461243552500,7.013552490234375,0.015843465819954872,0.3170189540028572,0.40693303368389605
1684108461253569500,7.023569580078125,-0.0053892918229103085,-0.22181436669826507,0.3317237711817026
1684108461263587600,7.033587646484375,-0.006741327486373484,-0.5908177749603987,0.28253713094741106
1684108461273604400,7.043604248046875,0.03447042487859726,-0.778128983554244,0.2771577759966254
1684108461283622400,7.053622314453125,0.08632803788781165,-0.7391992411792278,0.20017507408112287
1684108461293639400,7.063639404296875,0.11374797799931838,-0.4877963764250278,0.010213935500383376
1684108461303657500,7.073657470703125,0.10283961222767829,-0.20622516790032386,-0.12892156346738337
1684108461313674500,7.083674560546875,0.0406336236834526,0.05678805514872074,0.0064507835745811455
1684108461323692500,7.093692626953125,0.006451916085742413,0.23993220719099043,0.3095473029479384
1684108461333710300,7.10371044921875,-0.02819503440354019,0.25317162799239157,0.6309376039028167
1684108461343727600,7.1137275390625,-0.03074994305074215,0.07030746193528174,0.7556094009712337
1684108461353745400,7.123745361328125,0.005728899040818214,-0.21643676531314848,0.5932718901142477
1684108461363762700,7.1337626953125,0.04504617942869663,-0.4116010254949331,0.33528438627272844
1684108461373780500,7.143780517578125,0.16020985117852687,-0.435633642989397,0.2648003987267613
1684108461383797500,7.153797607421875,0.38201603457033634,-0.29472996530532836,0.3254682179182768
1684108461393815600,7.163815673828125,0.5968015620777383,-0.04519815512001514,0.33895635278373953
1684108461403833300,7.173833251953125,0.7267763974577188,0.2163619465112686,0.36223639834523197
1684108461413850600,7.1838505859375,0.8115531142503023,0.4645926109701395,0.4006269192770123
1684108461423868400,7.193868408203125,0.8454834409028291,0.6139625037044286,0.3822486742824316
1684108461433885700,7.2038857421875,0.829230225238204,0.5690419964820146,0.24545535452663897
1684108461443903500,7.213903564453125,0.778852621653676,0.3297048325747251,0.001664133819937706
1684108461453920500,7.22392041015625,0.6275076294541359,0.06063888535797596,-0.17808599186986684
1684108461463938600,7.2339384765625,0.45709966139886526,-0.0924649332076311,-0.16307751556932926
1684108461473955300,7.243955322265625,0.2754869567075744,-0.09508651388287544,0.00010404489636421203
1684108461483973400,7.253973388671875,0.04688627260373905,-0.13950140967071056,0.029880759000778197
1684108461493991700,7.26399169921875,-0.10703764843940734,-0.25041443823873993,-0.04590221173614263
1684108461504008400,7.274008544921875,-0.23713585447072982,-0.36928748590052124,-0.06055705229341984
1684108461514026500,7.284026611328125,-0.40368718363046646,-0.45366906589567657,-0.06011281565725803
1684108461524043500,7.29404345703125,-0.5752794295668602,-0.4984142165511846,0.0016974515676498412
1684108461534061300,7.304061279296875,-0.5707178207397461,-0.42211248263716694,0.0707297790005803
1684108461544078600,7.31407861328125,-0.43643034632503985,-0.28096213671565057,0.12974983098506926
1684108461554096400,7.324096435546875,-0.24712416452169417,-0.09673603465557098,0.1933610101521015
1684108461564114700,7.33411474609375,0.004070007651578634,0.09152911366224288,0.2057318314254284
1684108461574131500,7.34413134765625,0.28529930740343407,0.24976211180984972,0.143124276342988
1684108461584149500,7.3541494140625,0.4813572832882404,0.292968216329813,-0.0308522343814373
1684108461594166500,7.36416650390625,0.6144885734051465,0.22022972785532474,-0.2916539188608527
1684108461604184300,7.374184326171875,0.6348375339508057,0.1645218691587448,-0.5137944487735628
1684108461614201600,7.38420166015625,0.4985469395527616,0.13581424559056757,-0.5725301308587193
1684108461624219400,7.394219482421875,0.31962650615274907,0.207442726996541,-0.4445458482414484
1684108461634236700,7.404236572265625,0.12196283037066459,0.30984453232884407,-0.22188801645636558
1684108461644254500,7.41425439453125,0.0737473732560873,0.2845318118959665,0.01144727668762207
1684108461654272500,7.4242724609375,0.2924555906325578,0.0727455027371645,0.141065297986567
1684108461664289500,7.43428955078125,0.5141664969563484,-0.2599117499023676,0.2043716489881277
1684108461674307600,7.4443076171875,0.409769718414545,-0.49329146670997137,0.38377018476128577
1684108461684324600,7.45432470703125,0.08776598000274971,-0.6234855343312025,0.6260173908963799
1684108461694342700,7.4643427734375,-0.2908534161329269,-0.5789028807610272,0.7853133421003818
1684108461704359400,7.474359375,-0.528175148564577,-0.42362347172200676,0.8169090883255005
1684108461714377500,7.48437744140625,-0.4251379679381847,-0.24030688572227954,0.7166600771129131
1684108461724395500,7.4943955078125,0.016237415307294577,-0.11906886249482632,0.4110866462320089
1684108461734412500,7.50441259765625,0.42697044406235213,-0.057094929140806196,0.1920499275535345
1684108461744430600,7.5144306640625,0.6905383783847093,0.0018652093499898909,0.19509177946746348
1684108461754447400,7.524447265625,0.731136346232891,0.08625672621726989,0.35755145539939404
1684108461764465700,7.534465576171875,0.523400773769617,0.0931973391354084,0.4668807219073176
1684108461774482400,7.544482421875,0.2927238496473059,-0.04995265617072582,0.2906482489496469
1684108461784500500,7.55450048828125,0.1778326016306877,-0.28023908313810825,-0.1451116507679224
1684108461794517500,7.564517578125,0.047349159141443664,-0.5241974771052599,-0.5425274990439415
1684108461804535300,7.574535400390625,-0.1206418108999729,-0.6054115329802036,-0.5828501570820808
1684108461814553600,7.5845537109375,-0.36185002937614913,-0.32646716582775115,-0.21182956377863882
1684108461824570400,7.5945703125,-0.6494838989406824,0.14781097285449504,0.2776952438741922
1684108461834588400,7.60458837890625,-0.808933287140727,0.5108160174846649,0.5055126503795385
1684108461844605000,7.61460498046875,-0.6468582266122103,0.5749497592210769,0.3911348683103919
1684108461854623000,7.624623046875,-0.18314409724334255,0.12861644304096698,0.03831511760801077
1684108461864640000,7.634639892578125,0.31095917903985826,-0.4010474827766418,-0.15115122319310903
1684108461874658000,7.644657958984375,0.5646031372517347,-0.7039455569684505,-0.13236118252724408
1684108461884676000,7.654676025390625,0.4834153848618269,-0.7291261754542588,0.06433423274457455
1684108461894692900,7.66469287109375,0.10614449899196624,-0.4658721293866634,0.34141222150325773
1684108461904711000,7.6747109375,-0.14740067502055315,-0.0443242948949337,0.4980149881005287
1684108461914728000,7.68472802734375,-0.08557930187974125,0.3135387106716633,0.5345660186454654
1684108461924746000,7.69474609375,0.26681031377706677,0.4115887505352497,0.5024450795024633
1684108461934763000,7.704762939453125,0.5114285964250564,0.25827275052368637,0.3913970263779163
1684108461944781000,7.714781005859375,0.2189110830048099,-0.014039631268382072,0.14146335739344357
1684108461954798000,7.724798095703125,-0.28926234754920005,-0.04976210203468799,-0.12590455373376608
1684108461964816100,7.734816162109375,-0.4011545233476907,0.18748714968264102,-0.32287907820791006
1684108461974834000,7.744833984375,-0.07035130107700824,0.44047640684545036,-0.4313052583962679
1684108461984851200,7.754851318359375,0.5401601853907108,0.6957575743377208,-0.45177989114820954
1684108461994869000,7.764868896484375,1.100702064552903,0.7064654308348893,-0.550115177693963
1684108462004886000,7.774885986328125,0.8907277732521295,0.3327852629333734,-0.7302166010394692
1684108462014904000,7.784904052734375,0.10420096370875835,-0.15903320861458778,-0.8523892747685313
1684108462024920800,7.7949208984375,-0.504025005637668,-0.48341129320859905,-0.6641016223579644
1684108462034939100,7.804939208984375,-0.7446469851911067,-0.5214204136073589,-0.37104689678847785
1684108462044957000,7.81495703125,-0.7322042677253484,-0.34612054532468317,-0.23472879332900046
1684108462054974000,7.824973876953125,-0.4271691815048456,-0.051447863164544104,-0.03374737130105495
1684108462064992000,7.834991943359375,0.07714987517595291,0.05918810202777385,0.2900093665242195
1684108462075009000,7.845009033203125,0.5561831724960357,-0.06247662217915058,0.5020888134106993
1684108462085027000,7.855027099609375,0.672083341826871,-0.3006488339602947,0.7017816569328308
1684108462095043800,7.8650439453125,0.4298112935114652,-0.40184477063417434,0.8289315345525741
1684108462105062000,7.875061767578125,0.10128003476075828,-0.3918050226569175,0.8821019837260246
1684108462115080200,7.885080078125,-0.048833954339101905,-0.3088344785034656,0.9314838542714714
1684108462125097000,7.895096923828125,-0.04974288587756455,-0.21186755770146845,0.9972294151186942
1684108462135115000,7.905114990234375,-0.06731880151331425,-0.18773907861709593,1.020760805092752
1684108462145132000,7.915132080078125,-0.009351765713095664,-0.2044067203015089,0.955142377756536
1684108462155149800,7.92514990234375,0.09864617912583053,-0.18765023128986358,0.7534016617938876
1684108462165167000,7.9351669921875,0.18417181458957493,-0.007335165193676948,0.45181905411481854
1684108462175185000,7.945184814453125,0.2748346668113023,0.2017828015387058,0.1449260650679469
1684108462185202200,7.9552021484375,0.28569676402211186,0.3013163579583168,-0.18136077575683593
1684108462195220000,7.965219970703125,0.2110111600678414,0.23309505464732647,-0.6184770585194229
1684108462205238000,7.975238037109375,0.06480543045289815,0.09105974258482456,-0.899555807352066
1684108462215255000,7.985255126953125,0.044302740650251506,-0.05609831931889057,-0.80340721719563
1684108462225272800,7.99527294921875,0.09430566570349037,-0.011009469792246818,-0.8741650532469153
1684108462235290000,8.0052900390625,0.39809630482085046,0.23217034101784229,-1.0187272534385323
1684108462245308000,8.015307861328125,0.7719050675380974,0.6112783791869878,-0.8862067886963486
1684108462255325200,8.0253251953125,0.7606283981770277,0.8754512936651706,-0.731720283600688
1684108462265343000,8.035343017578125,0.14647241772711275,0.7983271374523639,-0.650491614678502
1684108462275361000,8.045361083984375,-0.41953824823498725,0.5083095876216888,-0.4128945724368095
1684108462285378000,8.0553779296875,-0.7664064701218157,0.3358224386721849,-0.2955579405620694
1684108462295396000,8.06539599609375,-1.0152684182215481,0.10953998664915561,-0.2124883199483156
1684108462305413000,8.0754130859375,-1.1868209166694432,-0.17988427346348762,-0.10965104580819607
1684108462315431200,8.08543115234375,-1.204953881666064,-0.40431262205243107,-0.12821633780747652
1684108462325448000,8.095447998046875,-0.9678320557206869,-0.3816863642245531,-0.18166940331459044
1684108462335466000,8.105466064453125,-0.27377836269140243,-0.07363572957515716,-0.20552987911254167
1684108462345484000,8.115484130859375,0.7475643339425325,0.2527881816327572,-0.15992752710580824
1684108462355501000,8.1255009765625,1.1220650975119322,0.36650808431506154,-0.09135697196573019
1684108462365519000,8.13551904296875,0.5452923606473952,0.24086861125826833,-0.008771335476636886
1684108462375535900,8.145535888671875,-0.25459720381610096,-0.03976327058970928,0.05951309619843959
1684108462385554200,8.15555419921875,-0.7665045967340469,-0.29475568426847454,0.10898761346340179
1684108462395571000,8.165571044921874,-0.922823212627694,-0.517197827476263,0.2749386386424303
1684108462405589000,8.175589111328126,-0.8910163809351622,-0.6943868705064058,0.5379299421206116
1684108462415606000,8.18560595703125,-0.6868184080135077,-0.7738456071466207,0.7955553346514701
1684108462425623800,8.195623779296875,-0.32698030298165975,-0.7198521511524916,1.0379153535112737
1684108462435642000,8.20564208984375,0.14615626445002852,-0.5884919623613357,1.2809873200327158
1684108462445659000,8.215658935546875,0.48780222164392467,-0.3881166895329952,1.4368687866181133
1684108462455677000,8.225677001953125,0.4493577055025845,-0.16418986072540281,1.4498036715149878
1684108462465694000,8.23569384765625,0.036475408025458456,0.044132571715116496,1.2924945102140306
1684108462475712000,8.2457119140625,-0.43307161048166454,0.0033779520004987716,0.9951160762265324
1684108462485729000,8.25572900390625,-0.7197193916182965,-0.3164741796016693,0.5717091698646545
1684108462495747000,8.2657470703125,-0.8513433459121733,-0.6212567523658276,0.23438187958747148
1684108462505764900,8.275764892578126,-0.8842454985607415,-0.6804355020433664,-0.038868075315654275
1684108462515782100,8.2857822265625,-0.7749380054932087,-0.47625732980072494,-0.17271160535514354
1684108462525800000,8.295800048828125,-0.5399286416571587,-0.10865677407383918,-0.2145709714412689
1684108462535817000,8.30581689453125,-0.0579779955856502,0.293977101111412,-0.31631869677901264
1684108462545835000,8.3158349609375,0.8672919526070356,0.504765631404519,-0.7652320925801992
1684108462555852000,8.32585205078125,1.7388485769212245,0.5135071562647819,-1.3314654613822698
1684108462565870000,8.3358701171875,1.6291373253583907,0.3049930006444454,-1.5603668637320398
1684108462575888000,8.345887939453124,0.9051998776536434,0.031013562422990797,-1.5594816053301095
1684108462585905200,8.3559052734375,0.18571612142212687,-0.010534253495931624,-1.3094570431917905
1684108462595923000,8.3659228515625,-0.37720417730920014,0.09096680360436439,-0.7243892100602388
1684108462605940200,8.375940185546876,-0.7980564307522028,0.36650399266183376,0.05729162075668573
1684108462615958000,8.3859580078125,-0.99000815862827,0.6078565880447626,0.7294418172746896
1684108462625974800,8.395974853515625,-1.0207949996232986,0.530256631013751,0.9766714879974723
1684108462635993000,8.4059931640625,-0.9304057036459445,0.2035568254739046,0.948109410379827
1684108462646011100,8.41601123046875,-0.631394115498662,-0.25542437535524365,0.7936211517184972
1684108462656028200,8.426028076171875,-0.1336608669489622,-0.7200929741710425,0.6340449222683906
1684108462666046000,8.4360458984375,0.4774905248574912,-0.9307938261806964,0.4020601669505238
1684108462676063000,8.44606298828125,0.6767875009298324,-0.7625625811100005,0.19412614930570124
1684108462686081000,8.4560810546875,0.15909516793489456,-0.3594564122378826,0.1549126215532422
1684108462696098000,8.46609814453125,-0.4405851279169321,0.05963818388283253,0.22542875780314206
1684108462706115800,8.47611572265625,-0.7919458389174193,0.5376157616049051,0.18562369389832017
1684108462716133000,8.486133056640625,-0.9927553384445607,1.0095464603781699,0.15771189688295126
1684108462726151000,8.49615087890625,-1.0145862081110477,1.3353110308945177,0.10679098020195961
1684108462736169200,8.506169189453125,-0.9230882202394306,1.4075415698468685,0.026194179442524907
1684108462746186000,8.51618603515625,-0.6886135478019714,1.2383242363482714,-0.3118319067537784
1684108462756203800,8.526203857421875,-0.3111665747128427,0.8577993171185254,-0.9362243267968297
1684108462766221000,8.536220947265624,-0.012490575195476411,0.527205426749587,-1.5379647700488566
1684108462776238800,8.54623876953125,-0.060170683324337004,0.48356093081235885,-1.7813965097934006
1684108462786256100,8.556256103515626,-0.2693183876078576,0.6216133107185363,-1.6599007124125957
1684108462796274000,8.56627392578125,-0.493700632032752,0.7585305491149426,-1.4425316346853971
1684108462806292000,8.5762919921875,-0.7292319008510559,0.89096918079257,-1.399162740819156
1684108462816309000,8.58630908203125,-0.8346557574182748,0.8946002307713031,-1.5375731403827666
1684108462826327000,8.5963271484375,-0.8878397236604243,0.8253186047524214,-1.726461973556876
1684108462836344000,8.606343994140625,-0.9011907150775194,0.6741501381635665,-1.9707263647332787
1684108462846361300,8.616361328125,-0.9692460141718388,0.4449702111333608,-2.0590905846238137
1684108462856378400,8.62637841796875,-1.0834271046251058,0.1555120487511158,-1.55231887409389
1684108462866396400,8.636396484375,-1.0872889676850288,-0.1489332548826933,-0.772429602868855
1684108462876414200,8.646414306640626,-0.8519242876052856,-0.2598047823965549,-0.3105325145930052
1684108462886431500,8.656431396484376,-0.30594401775896546,-0.2272632797539234,-0.006506897675991058
1684108462896449300,8.66644921875,0.705397509342432,-0.05208908367753028,0.31860359284579753
1684108462906466300,8.67646630859375,1.7310335192561148,0.3094990798920393,0.6117921739280223
1684108462916484400,8.686484375,1.8797890794843435,0.5658762259274721,0.6753998459637165
1684108462926501400,8.69650146484375,1.4499521400749682,0.44357554190456866,0.6418441978424787
1684108462936519400,8.70651953125,1.0695160681724547,-0.010638298392295837,0.7003978013589978
1684108462946536200,8.7165361328125,0.677274992185831,-0.5108002353936434,0.8296931665748357
1684108462956554500,8.726554443359374,0.2612339384168386,-0.7071539976209402,1.1169245928183198
1684108462966572300,8.736572265625,-0.03369476433098316,-0.6553875700265169,1.4164327323108912
1684108462976589600,8.746589599609376,0.19666987897176294,-0.4062783691674471,1.5561340484678745
1684108462986607400,8.756607421875,0.9427724332660437,-0.09682955815792083,1.3323849143147468
1684108462996624100,8.7666240234375,1.615740668168664,0.1923947954684496,0.5130436304062604
1684108463006642400,8.776642333984375,1.5201204858005046,0.16938158414959906,-0.5333984361708164
1684108463016659200,8.7866591796875,0.9536135607540607,-0.11604805336892604,-1.210672259312868
1684108463026677200,8.79667724609375,0.6000929317733272,-0.3918716581523418,-1.6894862878590822
1684108463036695300,8.8066953125,0.5418541298270225,-0.5257417839378118,-1.8897393956124782
1684108463046712300,8.81671240234375,0.438254054620862,-0.59573886474967,-1.6792805356651543
1684108463056730400,8.82673046875,0.08242520349668338,-0.7485305486261844,-0.8502437871724366
1684108463066747400,8.836747314453126,-0.40089959873855113,-0.7573071447998285,0.2754880892187357
1684108463076765200,8.84676513671875,-0.9811112240105867,-0.49626902121603483,1.0539151789367198
1684108463086782500,8.856782470703125,-1.4498644617915153,-0.18275895211696624,1.8169301799893378
1684108463096800300,8.86680029296875,-1.499503814229369,-0.14635492882728576,2.1928642642974854
1684108463106818600,8.876818603515625,-1.18766613532193,-0.28281039493083954,2.0764485466599463
1684108463116835300,8.88683544921875,-0.533263484679535,-0.5691051248461008,2.019059603008628
1684108463126853000,8.89685302734375,0.285250773820281,-0.8465104458630085,1.5892121422052383
1684108463136870400,8.906870361328124,0.5617752934146673,-0.5981704758107662,0.6836679080933332
1684108463146888200,8.91688818359375,0.33032270874474196,-0.025044424885511396,0.11118190863728522
1684108463156905500,8.926905517578126,0.24069036861453205,0.4393295748978853,-0.2817284449130297
1684108463166923300,8.93692333984375,0.40580030332691963,0.7661421931624413,-0.7534989846885204
1684108463176941300,8.94694140625,0.525920684168674,0.8264210130363703,-1.273843878018856
1684108463186958300,8.956958251953125,0.2525122873008251,0.6666413699686526,-1.6005430990368126
1684108463196976400,8.966976318359375,-0.2778554211382754,0.36906945923566814,-1.8184557821214198
1684108463206993400,8.976993408203125,-0.8330991756260394,0.05448796151280403,-1.8345365638285873
1684108463217011500,8.987011474609375,-1.1812269691199064,-0.15250176101922988,-1.3180875088930128
1684108463227028500,8.997028564453124,-1.1805834105193613,-0.1172960076034069,-0.706171416324377
1684108463237046300,9.00704638671875,-0.7560410703867674,0.004084054443240165,-0.3009416794270277
1684108463247063300,9.017063232421876,0.21876374695599077,0.0987175638616085,0.03653144906163215
1684108463257081300,9.027081298828126,1.1974959668755532,0.22179741556346416,0.384687299606204
1684108463267099400,9.037099365234376,1.2153507725179196,0.27073651077747346,0.6367015742570161
1684108463277116400,9.047116455078125,0.46004039102587846,0.32273382451832294,0.8160808208078145
1684108463287134500,9.057134521484375,-0.0439186001708731,0.3143096950441599,0.9632657707184552
1684108463297151200,9.067151123046875,-0.19258476508259773,0.0830278272986412,1.007138814714551
1684108463307169500,9.07716943359375,-0.025163649084698408,-0.31501521296501156,0.8305091591328382
1684108463317186300,9.087186279296875,0.3520037946769968,-0.7001204457223414,0.5406897622227669
1684108463327204400,9.097204345703124,0.6166705936193466,-0.8607651811867952,0.300765738338232
1684108463337222400,9.107222412109374,0.5743202656785026,-0.753253485494852,0.23283669597208498
1684108463347239200,9.1172392578125,0.43350890592038627,-0.4869184245467186,0.36110593301057814
1684108463357257500,9.127257568359376,0.3863262989848852,-0.2742214302837849,0.47189971911311146
1684108463367274200,9.137274169921875,0.4135229700008407,-0.20904840862751006,0.37931262083053585
1684108463377292300,9.147292236328125,0.38654140304028983,-0.17981354631483554,0.24875614963769913
1684108463387309300,9.157309326171875,0.3118512325087562,-0.07092179444134235,0.29570553233921526
1684108463397327400,9.167327392578125,0.24593119187746196,0.1527624577820301,0.5068161341935395
1684108463407345400,9.177345458984375,0.14962770342025905,0.2596937232375145,0.7216945641487836
1684108463417362400,9.187362548828125,0.35683190895318984,0.2877969511717558,0.7585580216437577
1684108463427380200,9.197380126953124,0.6033668754100799,0.2536187872380018,0.46554245904088015
1684108463437397200,9.207397216796876,0.7889660193890333,0.2816653165489435,-0.11256897908151149
1684108463447415300,9.217415283203126,0.9081576314806937,0.3489876251935959,-0.6644757163673639
1684108463457432300,9.227432373046875,0.8888765924274921,0.3109539548754692,-0.9677426238715648
1684108463467450400,9.237450439453125,0.6875374430030584,0.2289461182743311,-1.038717025282979
1684108463477468200,9.24746826171875,0.36383853631224483,0.0543061752051115,-0.8944751430869102
1684108463487485400,9.2574853515625,-0.027511655249260365,-0.18384324022233486,-0.39970483599603174
1684108463497503200,9.267503173828125,-0.430409770861268,-0.36610184160172937,0.262115397426486
1684108463507520500,9.2775205078125,-0.7806646395117044,-0.4329436732530594,0.770773360094428
1684108463517538300,9.287538330078124,-0.891564224076271,-0.35769641682803627,1.115472932705283
1684108463527555300,9.297555419921874,-0.7494500015586614,-0.26970599868595596,1.3133143031418322
1684108463537573400,9.307573486328126,-0.39004031453933563,-0.2573644035071134,1.360143274334073
1684108463547591400,9.31759130859375,0.007998597538471222,-0.3879103533059358,1.1570394533246755
1684108463557608400,9.3276083984375,0.20562311035394668,-0.4425760094732046,0.5151227747678756
1684108463567626200,9.337626220703125,0.06673541213478892,-0.23453882371485232,-0.24775661720633504
1684108463577643500,9.3476435546875,0.01855272477865219,0.0036392332851886747,-0.685747636976838
1684108463587661300,9.357661376953125,0.09934713046941905,0.2966103722244501,-0.9199725724369286
1684108463597678300,9.36767822265625,0.26597853912804276,0.6249322260081768,-0.9200929839462041
1684108463607696400,9.3776962890625,0.2896306328723207,0.7111649868279695,-0.7315718150407076
1684108463617714400,9.38771435546875,-0.09072356943301856,0.33284897581934925,-0.3331517581582069
1684108463627731200,9.397731201171876,-0.5037777528783306,-0.1289858608752489,0.0012917933762073516
1684108463637749500,9.40774951171875,-0.7445990543961525,-0.3500409336388111,0.07695172225534916
1684108463647766300,9.417766357421876,-0.6471979068953544,-0.40497546987533567,-0.17187515453100202
1684108463657784300,9.427784423828125,-0.21010347063839435,-0.19084581246078014,-0.5434036973565817
1684108463667801300,9.43780126953125,0.31158290042877196,0.2012964793264866,-0.7599573670476675
1684108463677819100,9.447819091796875,0.5023574012190103,0.4993886145412922,-0.5580751967877149
1684108463687837400,9.45783740234375,0.21298516355454922,0.6283323898404837,0.07746843960583209
1684108463697854200,9.467854248046875,-0.1746557251602411,0.520700282639265,0.6928028161853551
1684108463707872500,9.47787255859375,-0.514275181495212,0.24349545263051986,0.9789034848332404
1684108463717889300,9.48788916015625,-0.6816233235884458,-0.06703764648437499,1.0194722265869378
1684108463727907300,9.4979072265625,-0.46981648309826846,-0.4425140501528978,0.895348418790102
1684108463737924400,9.50792431640625,0.04033844012916088,-0.6999678855091332,0.6757236710906028
1684108463747942400,9.5179423828125,0.6035398938894272,-0.8287830659925938,0.5190431630820036
1684108463757959400,9.52795947265625,0.7507062121648341,-0.7735767270773649,0.3696130645930767
1684108463767977200,9.537977294921875,0.4148084067014977,-0.608573796403408,0.25867080993056296
1684108463777995300,9.547995361328125,-0.030786183407902717,-0.5394225187659263,0.19086685524880884
1684108463788012300,9.55801220703125,-0.5800631567120552,-0.4850403557151556,0.20159809262156486
1684108463798030300,9.5680302734375,-1.1520616649121045,-0.3473614852964878,0.2943149547636509
1684108463808047400,9.57804736328125,-1.460743583202362,-0.13371522748470305,0.38255963992774483
1684108463818065400,9.5880654296875,-1.4542021987348794,-0.006013561201095581,0.39305005428195
1684108463828082400,9.59808251953125,-1.0313924545485527,0.06986614790856838,0.3270452579766512
1684108463838100500,9.6081005859375,-0.15501630112342535,0.19873744249343872,0.22373218301832676
1684108463848118800,9.618118896484376,0.946492330572009,0.35745968546271323,0.08480594288706779
1684108463858136000,9.628135986328125,1.6076456245183943,0.5661912832260132,-0.05327040241658687
1684108463868153900,9.63815380859375,1.580339099919796,0.7961585612416266,-0.14223814115822314
1684108463878170600,9.648170654296875,1.2886369580030441,0.8210235379070043,-0.2862128968507051
1684108463888189000,9.65818896484375,0.8740554553925991,0.4104793279886246,-0.46970776202678677
1684108463898205700,9.668205810546874,0.16383271785080433,-0.05040332254767418,-0.4953665194183588
1684108463908223700,9.6782236328125,-0.5678325476270168,-0.044759763702750206,-0.24539456425011155
1684108463918241800,9.68824169921875,-0.8634148919779807,0.2104009922802448,0.056423898011446
1684108463928258800,9.6982587890625,-0.8467402360308914,0.20778525682389734,0.2646370248585939
1684108463938276900,9.70827685546875,-0.6279921981006861,-0.10513386064469814,0.2995990326464176
1684108463948294000,9.7182939453125,-0.046292380097508426,-0.4802794249236583,-0.10799041911959648
1684108463958311700,9.728311767578125,0.370558273021318,-0.8353162671536206,-0.6986392672538757
1684108463968329000,9.738328857421875,0.0994277579575777,-0.8626368202775716,-1.0685293952226638
1684108463978346800,9.7483466796875,-0.5342254615794867,-0.49805999628603453,-0.9763456170439719
1684108463988365000,9.758364990234375,-0.999354152187705,0.016585808619856833,-0.5575690008312464
1684108463998381800,9.7683818359375,-1.325681617283821,0.3414402785539627,-0.21819383811354637
1684108464008399600,9.778399658203124,-1.3591706299096344,0.6743441994309425,-0.02085457198023796
1684108464018417000,9.7884169921875,-0.7353436617296188,1.064772673037648,-0.07662848165035248
1684108464028434700,9.7984345703125,0.20447167529650032,1.3682032466709613,-0.23420564623773096
1684108464038452000,9.808451904296875,0.4342646196585148,1.2789490922033786,-0.37094869711101053
1684108464048469800,9.8184697265625,0.46380058380961414,0.9246803117364645,-0.6321902343124151
1684108464058487800,9.82848779296875,0.5785773020684719,0.5654004251092672,-0.9661194065839052
1684108464068504800,9.8385048828125,0.4451631398895755,0.27503216214478016,-1.099320254805684
1684108464078523000,9.84852294921875,0.06697864630613476,0.16620996837615964,-0.8956167143374681
1684108464088540000,9.858539794921874,-0.3414262500286102,0.10772270809412002,-0.4501619345575571
1684108464098558000,9.868557861328124,-0.5403647680521011,-0.09549217207431793,-0.0057137014716863626
1684108464108575000,9.878574951171874,-0.6486532933354378,-0.5196691860258579,0.09878069222569465
1684108464118592800,9.8885927734375,-0.7721598460167646,-0.9151637108504772,-0.07059387766122818
1684108464128610800,9.89861083984375,-0.9063070351779461,-1.119725329452753,-0.2205360173255205
1684108464138627800,9.9086279296875,-0.9492220477968454,-0.8208511039495467,-0.23194997626543043
1684108464148646000,9.91864599609375,-1.0450451323259622,-0.17946575579047203,-0.08336860356032848
1684108464158663000,9.928662841796875,-1.0234212564736604,0.2564507957935333,0.02571837862432003
1684108464168681000,9.938680908203125,-0.7984411192208528,0.4745119474381208,-0.03846913912594318
1684108464178697700,9.94869775390625,-0.4085959984600544,0.5376075782984495,-0.14072598302960396
1684108464188716000,9.958716064453125,-0.08746668652892112,0.5432242491364478,-0.18974808035194873
1684108464198733800,9.96873388671875,0.08186349622700363,0.4900830260574817,-0.1691805086195469
1684108464208750800,9.978750732421876,0.22243516547773032,0.38620296486616135,-0.22883915076851843
1684108464218769000,9.988768798828126,0.43278760590851306,0.17477964380085467,-0.27508535363674164
1684108464228785700,9.99878564453125,0.6879302417129278,0.07391922269165516,-0.27923604357540605
1684108464238804000,10.008803955078125,0.8366033843547105,0.3339537221908569,-0.10908639766275882
1684108464248820700,10.01882080078125,0.8097633082240819,0.6711889502704144,0.17917992458641527
1684108464258838800,10.0288388671875,0.34723643414471295,0.6392576884806156,0.3091635643273592
1684108464268856800,10.03885693359375,-0.21683887984063474,0.32768355588018894,0.2772095061838627
1684108464278873900,10.048873779296875,-0.3464595314880833,-0.0447989266693592,0.13564181163311004
1684108464288892000,10.058891845703124,-0.16483816856630146,-0.4253536565154791,-0.09516367077231407
1684108464298909000,10.068908935546874,-0.10970423730015753,-0.8424602936893701,-0.17137246570587159
1684108464308926700,10.0789267578125,-0.20350714111328125,-1.124789042583108,0.09848726223707198
1684108464318943700,10.08894384765625,-0.1797282061189413,-1.1930413255542516,0.4924643682360649
1684108464328961800,10.0989619140625,0.06915303120315075,-1.1629366946697235,0.7696884874671697
1684108464338979800,10.108979736328125,0.24655425567924974,-0.9051105188697576,1.050009403669834
1684108464348996900,10.118996826171875,0.019051924738753587,-0.3059212214052677,1.2303268078535794
1684108464359014700,10.1290146484375,-0.28780805708765983,0.2580325120270252,1.1849299152910708
1684108464369032000,10.139031982421875,-0.41618831675257534,0.4723807806283235,0.9097025228351354
1684108464379049700,10.1490498046875,-0.326530878713727,0.4626163424611091,0.5260159247040749
1684108464389067000,10.15906689453125,0.19607377624213695,0.4733370584398508,0.09448971703350544
1684108464399084800,10.169084716796876,0.6928969242095947,0.6982721875071525,-0.29509646053016186
1684108464409102800,10.179102783203126,0.6425660823762417,1.051087262034416,-0.4976847332328558
1684108464419119900,10.189119873046875,0.3648106327474117,1.2425579283952712,-0.5659755946487188
1684108464429138000,10.199137939453125,0.4167565085619688,1.025993737310171,-0.7979027745604514
1684108464439155000,10.209155029296875,0.7619564319103955,0.3447060023516416,-1.1711392903476954
1684108464449172700,10.2191728515625,1.0451350756317377,-0.3417448144584894,-1.324346569287777
1684108464459190000,10.22918994140625,0.8543716807574033,-0.556435612887144,-1.0610469305127859
1684108464469207800,10.239207763671875,0.24097327720914036,-0.3272065860182047,-0.4452811767786741
1684108464479225900,10.249225830078124,-0.5126946708381176,0.014477438163757324,0.23073066360354422
1684108464489243000,10.259242919921874,-1.1335054330021141,0.28048750494122504,0.5031424141168594
1684108464499261000,10.269260986328124,-1.1859352929413318,0.3030471272736788,0.19176117374002932
1684108464509277700,10.279277587890626,-0.5744213514328003,0.06936053647398949,-0.463922164362669
1684108464519296000,10.2892958984375,0.15824114492144434,-0.21761983761787412,-1.0946581082135438
1684108464529312800,10.299312744140625,0.1719505578547716,-0.20920038431882856,-1.1428571987152099
1684108464539330800,10.309330810546875,-0.034512492188345636,0.010022796842455862,-0.6557856294333935
1684108464549348900,10.319348876953125,-0.07535358461001887,0.24181027602255342,-0.2457762570440769
1684108464559365600,10.32936572265625,-0.05135784679353237,0.6306862594902515,-0.013894669839739799
1684108464569384000,10.339384033203125,0.18701193338632582,0.9509072244048118,-0.07805588410496711
1684108464579400700,10.349400634765624,0.6633009004343301,0.9979366866052151,-0.5179547833234072
1684108464589419000,10.3594189453125,1.1281342613577843,0.7558867566078901,-1.2020663435310124
1684108464599435800,10.369435791015626,1.124292783498764,0.437179703387618,-1.6642402029216288
1684108464609453800,10.379453857421876,0.5765887585997581,0.2008902366131544,-1.6367600753217935
1684108464619472000,10.389471923828125,-0.16838497432768343,0.028106735065579414,-1.3012889343053102
1684108464629489000,10.399489013671875,-0.8221697853326797,-0.046477089014649385,-0.7892728933811187
1684108464639507000,10.4095068359375,-0.9730997669905423,-0.16250994481444359,-0.06864274359345436
1684108464649523700,10.419523681640625,-0.6702391021996736,-0.33454116668999195,0.5539157390207052
1684108464659541800,10.429541748046875,-0.2788251246869564,-0.43682665216624733,1.0870260058999062
1684108464669558800,10.439558837890624,-0.010304499860666692,-0.5747364087313414,1.5347025533825158
1684108464679576800,10.449576904296874,0.1710615365931764,-0.736017104011774,1.902403062352538
1684108464689594600,10.4595947265625,0.3068535338193178,-0.8853875812679529,2.0571207458555696
1684108464699612000,10.46961181640625,0.3702180447489023,-1.1089812325984238,1.804053747281432
1684108464709629700,10.479629638671875,0.21200313024725764,-1.2892623964250087,1.5562643968492746
1684108464719647000,10.48964697265625,-0.08211772671639919,-1.2291869901686907,1.4922837998479603
1684108464729664800,10.499664794921875,-0.2788982264557853,-0.8273176696151494,1.5345856490045784
1684108464739681800,10.509681884765625,-0.3969453081548214,-0.3174935857772827,1.5084738871484995
1684108464749699800,10.519699951171875,-0.36145489257872104,-0.0068611179411411285,1.3226999711245297
1684108464759718000,10.5297177734375,-0.13783906594906,0.04444821353554725,1.0514414822995661
1684108464769735000,10.53973486328125,0.28926640266980974,-0.1814145517706871,0.7262579265415668
1684108464779752700,10.549752685546874,0.8024252204209565,-0.5063239667624235,0.4323766870200634
1684108464789770000,10.55977001953125,0.8417319794148206,-0.6344225234091282,0.16574761156141757
1684108464799787800,10.569787841796876,0.29772801461014897,-0.46568215977251526,0.05901274546086788
1684108464809804800,10.5798046875,-0.21713643801510332,-0.20652210502028465,0.1347328800946474
1684108464819822800,10.58982275390625,-0.44721828232109545,-0.06688976244628429,0.09026479281485081
1684108464829841000,10.5998408203125,-0.5301712542852387,0.014867314264178276,-0.04778700256943703
1684108464839858000,10.60985791015625,-0.544411997616291,0.043132454761862754,-0.33988077415227885
1684108464849875700,10.619875732421875,-0.5398047960817813,0.056985623547434805,-0.7477315072029829
1684108464859892500,10.629892578125,-0.4779582884997129,0.07159224104881286,-1.042862454524636
1684108464869910800,10.639910888671874,-0.3848316765129566,0.24037936643660068,-1.0238199004024267
1684108464879927600,10.649927490234376,-0.15347148283421994,0.572004937940836,-0.6070774203658104
1684108464889945900,10.65994580078125,0.002577120479010045,0.887075095963478,-0.16956570854485034
1684108464899963600,10.669963623046876,0.19768475510273129,1.0742758299201727,0.02071954742372036
1684108464909980700,10.679980712890625,0.6301069982975721,0.9547691605299711,-0.101236268684268
1684108464919998700,10.689998779296875,1.1404968993246554,0.43324528654813765,-0.4970522805482149
1684108464930015700,10.700015625,1.199935761243105,-0.16344459531605243,-0.7245739189773798
1684108464940033800,10.71003369140625,0.6646107409238815,-0.5150426952689886,-0.44467619662284846
1684108464950050800,10.72005078125,-0.1480692949971184,-0.6593026976436376,0.0052484220474958414
1684108464960068600,10.730068603515624,-0.879240164554119,-0.6187561677217484,0.32779987573623653
1684108464970087000,10.7400869140625,-1.3335434367001056,-0.4348959763646126,0.5441296735435724
1684108464980103700,10.750103759765626,-1.360814889985323,-0.20112229180335997,0.5494055681198835
1684108464990121700,10.760121826171876,-0.8438222296923399,0.15886486631035804,0.2508557522654533
1684108465000138800,10.770138671875,0.20306115091145038,0.49251755972802636,-0.04014671694934368
1684108465010156500,10.780156494140625,0.9909563261985779,0.6565297257989645,-0.3295610401898622
1684108465020173800,10.790173828125,0.966503364400193,0.7545172218203544,-0.680755235517025
1684108465030191600,10.800191650390625,0.5977314998716116,0.6382505572646856,-0.9581494506180286
1684108465040209700,10.810209716796875,0.5563157858997583,0.34721944647729397,-1.060766944527626
1684108465050226700,10.820226806640624,0.4938111066699028,0.038517069920897484,-0.9514595975905656
1684108465060244700,10.83024462890625,0.09836217455267905,-0.16984335644245147,-0.7205535774201154
1684108465070261800,10.84026171875,-0.15674652244951576,-0.36017712772786614,-0.38849312162995336
1684108465080279800,10.85027978515625,-0.1666045206516981,-0.5091337634861469,0.19265373866558075
1684108465090296800,10.860296875,-0.2577064218778163,-0.4973872115910053,0.7965466837763786
1684108465100314600,10.870314697265625,-0.34133619712498037,-0.3284568783402443,1.359647015249729
1684108465110332700,10.880332763671875,-0.2604085569759831,-0.24463585483729838,1.5974012938797473
1684108465120349700,10.890349609375,0.02668112270925194,-0.2841395977079868,1.3683037844359873
1684108465130367700,10.90036767578125,0.1963677907526493,-0.3529845858752727,0.7468009483546019
1684108465140384800,10.910384765625,0.1961457089671865,-0.29845103165507314,0.028934418061375616
1684108465150402800,10.92040283203125,0.2551045688163489,-0.2642933259874582,-0.27249884427487847
1684108465160419600,10.930419677734376,0.24394721498601138,-0.14947978284955024,-0.2407657354056835
1684108465170438000,10.94043798828125,0.1885596742849797,-0.04718845215439796,0.0004983049109578133
1684108465180455700,10.95045556640625,0.010864508363604544,-0.0789145467609167,0.4515115956008434
1684108465190472700,10.96047265625,-0.2417593860855326,-0.16500000806450843,0.8524795834004878
1684108465200490800,10.97049072265625,-0.27936814552247524,-0.18801380390524863,1.0239484952181577
1684108465210507500,10.980507568359375,0.08189319724552332,-0.17309388267099857,0.9646732994288205
1684108465220525800,10.99052587890625,0.5746954921990632,-0.1412988144814968,0.5873147352755069
1684108465230542600,11.00054248046875,0.5930523290794343,-0.1622954252809286,0.10132716183811426
1684108465240561000,11.010560791015624,0.2828185051720589,-0.2740583486765623,-0.13526245692670344
1684108465250578700,11.02057861328125,0.010074673160165548,-0.31395255216956136,-0.09297755890488624
1684108465260595700,11.030595703125,-0.18329094010181723,-0.1802431699037552,0.01633884812146425
1684108465270613800,11.04061376953125,-0.2032441793281585,-0.003115501672029495,0.2806821507304907
1684108465280630800,11.050630859375,-0.014915902646258472,0.1742693561911583,0.5395008446991443
1684108465290648600,11.060648681640625,0.3202297327429056,0.24763328308761118,0.5381432926103472
1684108465300665600,11.07066552734375,0.5865068529587238,0.1905471217751503,0.3147662066400051
1684108465310683600,11.08068359375,0.48784138461053367,0.07781623013019562,-0.03355857073068619
1684108465320701700,11.09070166015625,0.2835861285436898,-0.008359832066297531,-0.42582302759289736
1684108465330718700,11.10071875,0.20485680215656757,0.005692658683657646,-0.6372673914462328
1684108465340736500,11.110736572265624,0.1776988191831857,0.09159165750443934,-0.8637953426629305
1684108465350753800,11.12075390625,0.05404898557364941,0.30376258206665513,-0.9506798453897237
1684108465360771600,11.130771484375,-0.07833587009012699,0.4815542671650648,-0.9421078318774699
1684108465370788900,11.140788818359376,-0.20729425843656063,0.5183417368143797,-0.7631570398718118
1684108465380806700,11.150806640625,-0.31234635908193886,0.3303045520335436,-0.3862579099237919
1684108465390824700,11.16082470703125,-0.27207798851430415,0.04930500591695308,-0.22963526958227157
1684108465400841700,11.170841796875,-0.2090297769922763,-0.22524784827828406,-0.31243688690960403
1684108465410859800,11.18085986328125,-0.2495539489518851,-0.321092487052083,-0.23910335515141487
1684108465420876800,11.190876708984375,-0.3243792536377907,-0.12763853791952132,-0.2001218825891614
1684108465430894600,11.20089453125,-0.33115568897016345,0.1951432173937559,-0.38705519778132436
1684108465440912000,11.210911865234374,-0.24908918098434804,0.43972529621720313,-0.5609697491854428
1684108465450929700,11.2209296875,-0.1588829864889383,0.5278355413466692,-0.5708937618285417
1684108465460947700,11.23094775390625,-0.1447708014409989,0.37889118054807186,-0.34007629672437906
1684108465470964700,11.24096484375,-0.04966455994434654,0.05097907660901546,-0.028134499855339525
1684108465480982800,11.250982666015625,0.09240173177830874,-0.16039514461755752,0.2794569928497076
1684108465490999800,11.260999755859375,0.22945815944969652,-0.2317372102975845,0.5829252681449055
1684108465501017900,11.271017822265625,0.35918402503728863,-0.2306786411553621,0.8287243215426802
1684108465511035600,11.28103564453125,0.49291328104734417,-0.21963760718107223,0.9933259779393673
1684108465521052700,11.291052734375,0.522768978672102,-0.29770167459249497,0.9580801847741007
1684108465531070700,11.30107080078125,0.41589148923046887,-0.44364860714077947,0.6894122969642281
1684108465541087700,11.311087646484374,0.17544775232076643,-0.5388111088693142,0.3358545873761177
1684108465551105800,11.321105712890626,-0.11152202731184661,-0.5134335065066814,0.3380871687337756
1684108465561122600,11.33112255859375,-0.34956447523348033,-0.2748638198405504,0.6546259380042553
1684108465571140900,11.341140869140625,-0.4048790237635374,-0.019041969600319862,0.8331187571093439
1684108465581158700,11.35115869140625,-0.28278482209816574,0.16921557993292807,0.8862973895892501
1684108465591175700,11.36117578125,-0.03976517028585076,0.30503391717672346,0.9035852089986205
1684108465601193700,11.37119384765625,0.28194712916500864,0.294866743427515,0.6803346720173955
1684108465611210800,11.381210693359375,0.2607272310037166,0.14513035546839237,0.14072832111716269
1684108465621228800,11.391228759765625,0.10471826558113098,-0.057418169745802876,-0.363278893135488
1684108465631245600,11.40124560546875,-0.013280337333679199,-0.18105857793986796,-0.7433823720827698
1684108465641263600,11.411263671875,-0.1098585510790348,-0.16033201625347138,-0.9988760132819413
1684108465651281700,11.42128173828125,-0.24433584897741675,-0.0238940858066082,-1.0561524364694952
1684108465661298700,11.431298583984375,-0.4015887500464916,0.13015724274218082,-1.0776999591499565
1684108465671316700,11.441316650390625,-0.5548959822297096,0.18795768980383873,-1.143970420654118
1684108465681333800,11.451333740234375,-0.6979800726927816,0.07663432686924934,-1.2459066543012858
1684108465691351600,11.4613515625,-0.8405475919358432,-0.18292787894308565,-1.25421680200696
1684108465701368800,11.471368896484375,-0.952124125913903,-0.3627326574295759,-0.9703878776833414
1684108465711386600,11.48138671875,-0.9343985726743936,-0.3984036902695894,-0.7085153491020202
1684108465721404700,11.49140478515625,-0.8088350143980234,-0.3668278177887201,-0.502984593206644
1684108465731421700,11.501421630859374,-0.5622433493178337,-0.26193419564068315,-0.2582712892189622
1684108465741439700,11.511439697265626,-0.12935564403571187,-0.13233575582504273,0.14188801254630087
1684108465751456800,11.521456787109376,0.381997914391756,0.05711012670993804,0.4195832564204931
1684108465761474600,11.531474609375,0.3569100887559354,0.3979910178154707,0.4432917565271258
1684108465771491800,11.541491943359375,-0.294514276728034,0.8929641540020704,0.3663917644590139
1684108465781509600,11.551509521484375,-0.8196065837811678,1.2802309487074612,0.5432739334970712
1684108465791527700,11.561527587890625,-1.0793464842479676,1.3603414272546768,0.8315230123504996
1684108465801544700,11.571544677734375,-1.1697072117179632,1.1462895112514495,0.8602554780989885
1684108465811562800,11.581562744140625,-1.0582733010809868,0.7072410913825035,0.49804158384650943
1684108465821579800,11.591579833984374,-0.8058808407675474,0.3192787156283855,-0.06228811386972665
1684108465831597800,11.601597900390624,-0.5172691391468047,0.09804477916657924,-0.5281625813439488
1684108465841614800,11.61161474609375,-0.19492533685937521,0.10286065501570701,-0.960351344576478
1684108465851633700,11.621633544921876,0.02593874337673187,0.4171259263962507,-1.2873702990680933
1684108465861651500,11.6316513671875,0.028316140032559632,0.8043775235325098,-1.4120567091837524
1684108465871668500,11.64166845703125,-0.11397475422620773,1.0203975247383117,-1.5048875530943273
1684108465881686500,11.6516865234375,-0.3031173429656774,0.9644278002351522,-1.6454899097442626
1684108465891703300,11.661703369140625,-0.5179986955303698,0.7907850515097379,-1.7953630758255719
1684108465901721600,11.6717216796875,-0.8217185344338417,0.6433925963282585,-1.8723498693943024
1684108465911738400,11.68173828125,-1.0576450861800462,0.6455822153270244,-1.945378280726075
1684108465921756400,11.69175634765625,-1.2520803745001554,0.8057394595354795,-1.8534400017410515
1684108465931774500,11.7017744140625,-1.4215379464954137,0.907881152626872,-1.5132137751519679
1684108465941791500,11.71179150390625,-1.3529365578256547,0.6640624593913554,-1.110644781896472
1684108465951809300,11.721809326171876,-1.0094395659375934,0.021986206358671188,-0.6914934871524572
1684108465961826600,11.73182666015625,-0.405412619183585,-0.4431500099688768,-0.41608138577938075
1684108465971844400,11.74184423828125,0.30773152223024514,-0.5321078118383884,-0.18548516221046446
1684108465981861400,11.751861328125,0.9022118017535656,-0.29064357277452946,0.11625088246464729
1684108465991879400,11.76187939453125,1.2285615517467259,0.09734335289895533,0.4867991820812225
1684108466001897500,11.7718974609375,1.3023229535281657,0.37341128783226013,0.7674228806227446
1684108466011914500,11.78191455078125,1.0971972713023423,0.4494809665560722,0.883188609918952
1684108466021932300,11.791932373046874,0.7445873639583587,0.2634258955031633,0.8867372423112392
1684108466031949600,11.801949462890626,0.4553688555508852,-0.06897066037356853,0.8753636153817176
1684108466041967400,11.81196728515625,0.2923638206958771,-0.3993587990373373,0.9400625897854566
1684108466051985400,11.8219853515625,0.19883911276962607,-0.74777417730093,1.022403603863716
1684108466062002400,11.83200244140625,0.2335200020611286,-1.145591007593274,1.0668968255847693
1684108466072020500,11.8420205078125,0.33045886581242084,-1.4283990644365547,0.9791080674946308
1684108466082037500,11.85203759765625,0.37077041793465615,-1.3695581684112548,0.8619996914178133
1684108466092055600,11.8620556640625,0.3064472911059856,-0.7555056483358145,0.7871177611738442
1684108466102072600,11.872072509765625,0.5076198517918586,-0.010664017355442047,0.6839683523446322
1684108466112090400,11.88209033203125,0.8548018888682126,0.3546855445742607,0.3065799775749445
1684108466122108400,11.8921083984375,0.9485118537008762,0.36559155399203297,-0.08518588211536407
1684108466132125400,11.90212548828125,0.7885457481503486,0.16114508620202542,-0.34205694914758206
1684108466142143500,11.9121435546875,0.5127314957171678,-0.07270400168299675,-0.44699499495923517
1684108466152160500,11.922160400390625,0.2396025733778253,-0.15728957981765268,-0.3284679842561483
1684108466162178600,11.932178466796875,0.053649209133721884,-0.03427285647988319,-0.1512199045151472
1684108466172195300,11.9421953125,0.0530909907290712,0.1836369039952755,-0.19238310503065584
1684108466182213600,11.952213623046875,0.20253858834207056,0.2992816372603178,-0.31852409786880015
1684108466192231400,11.9622314453125,0.14860592262446878,0.35158991664648054,-0.3559405130714178
1684108466202248400,11.97224853515625,-0.059063014343380925,0.3625432723373174,-0.22232991500496863
1684108466212266500,11.9822666015625,-0.10285831692814826,0.23440672176778315,-0.09415420146882533
1684108466222283300,11.992283203125,0.04743044421672821,-0.01936228759586811,0.05643558844923973
1684108466232301600,12.002301513671876,0.2558569215536117,-0.2898211504757404,0.41562078253030776
1684108466242318300,12.012318359375,0.46859717043638227,-0.48614627113044256,0.8416098143398761
1684108466252336400,12.02233642578125,0.5762052757075056,-0.5781494320452213,1.1832651969492434
1684108466262354400,12.0323544921875,0.5889180788189172,-0.5664952346086501,1.2508528785318136
1684108466272371500,12.042371337890625,0.6335638607531786,-0.39976036557555195,1.3075100007772444
1684108466282389500,12.052389404296875,0.5199485874891281,-0.0857727420926094,1.305677524653077
1684108466292406500,12.062406494140625,0.21707911833729593,0.24952187331318854,0.9852104760229587
1684108466302424300,12.07242431640625,0.05953589255213737,0.36835984966158863,0.47278176264464855
1684108466312441300,12.08244140625,0.08264496546089649,0.21233049903810022,-0.02161445043683052
1684108466322459400,12.09245947265625,0.11336802050471305,-0.09533493568599223,-0.28667350009977816
1684108466332477700,12.102477783203126,0.08068508183108643,-0.4150596415162086,-0.22282617408931255
1684108466342494500,12.112494384765625,-0.046945291048288346,-0.7062392208635807,-0.01773673222064972
1684108466352512300,12.12251220703125,-0.3640302960246801,-0.8240332411170005,0.21461656414866445
1684108466362529500,12.132529541015625,-0.8303700429230928,-0.649736412397027,0.37260757023394103
1684108466372547300,12.14254736328125,-1.1458926208883524,-0.12671207072436808,0.17203648257255552
1684108466382565400,12.1525654296875,-0.9845078807115554,0.2723521292805672,-0.4151256924897432
1684108466392582400,12.16258251953125,-0.4801689502865076,0.3881254573613405,-0.8222463577002287
1684108466402600400,12.172600341796874,-0.2671896136845462,0.4349842391699552,-1.0393407101392744
1684108466412617500,12.182617431640624,-0.39995150423347947,0.45682899123132226,-1.246283086398244
1684108466422635500,12.192635498046876,-0.5561398448109627,0.42026539346575736,-1.4120003028213977
1684108466432652500,12.202652587890626,-0.5938426757395268,0.36793197963833807,-1.5206956553399562
1684108466442670300,12.21267041015625,-0.4150643176913261,0.31417700857520103,-1.4553659818172453
1684108466452688400,12.2226884765625,-0.06770222960663959,-0.06641220806241036,-1.0467501096129417
1684108466462705400,12.232705322265625,0.29080139368474484,-0.543432923451066,-0.3640606911629438
1684108466472723500,12.242723388671875,0.6526917550712823,-0.8917010021984577,0.3030278380513191
1684108466482740500,12.252740478515625,0.8392530220806598,-1.0736737723737955,0.7813204730719328
1684108466492758500,12.262758544921875,0.8199222986668347,-1.2370692678511142,0.8870172282963991
1684108466502775600,12.272775634765624,0.6114017133057117,-1.1972323475033044,1.1392682343125342
1684108466512793600,12.282793701171874,0.344352987662889,-0.7846230217486619,1.6333879685401915
1684108466522811400,12.292811279296876,0.20162147349715231,-0.1022422308564186,2.045665870383382
1684108466532828700,12.30282861328125,0.2756388593336567,0.6271650996267795,2.210569432336092
1684108466542846500,12.312846435546875,0.3994050493318587,1.1300795502066612,1.8990484912276266
1684108466552863200,12.32286328125,0.5639490937897935,1.0123702856272458,0.9556523731052875
1684108466562881500,12.332881591796875,0.5915589852491393,0.4462310248494148,-0.06926642844974994
1684108466572898300,12.342898193359375,0.5100649433890357,0.09258826732635497,-0.6025269174546003
1684108466582916600,12.35291650390625,0.41112467668745667,-0.03845686416625976,-0.811682293587923
1684108466592934400,12.362934326171874,0.14290917228758335,0.045291678622364995,-0.7142255434423684
1684108466602951400,12.372951416015624,-0.2245359006166458,0.12071721422374247,-0.4310293640643358
1684108466612969500,12.382969482421874,-0.5292050396015867,-0.11440963851213455,-0.2225280679255724
1684108466622986500,12.392986572265626,-0.6706389151722192,-0.49714697309434414,0.0065998366564512245
1684108466633004500,12.403004638671876,-0.6783984432578086,-0.8636082956582307,0.2132376770108938
1684108466643021300,12.413021240234375,-0.6219370627801865,-1.15065296715796,0.344041400963068
1684108466653039400,12.423039306640625,-0.663744479483366,-1.272650284320116,0.41359482966065403
1684108466663057700,12.4330576171875,-0.6487655215382575,-1.1546487587958574,0.4710884027302265
1684108466673074400,12.443074462890625,-0.3734416464379057,-0.7023176635056734,0.4713052603513002
1684108466683092500,12.453092529296875,0.11234627624154091,-0.007903904992341995,0.42136487914025783
1684108466693109500,12.463109619140624,0.6444926665246486,0.5508849930226802,0.3253197493582964
1684108466703127300,12.473127197265624,0.9949240607857703,0.9611188218176364,0.1901806265503168
1684108466713145600,12.4831455078125,1.145022925381735,1.1861679326534271,0.03917816417813301
1684108466723162400,12.493162353515626,0.9915478623509406,1.0637018289357423,-0.08749299001395702
1684108466733180400,12.503180419921875,0.47328098087105896,0.6563187133967876,-0.1666132884800434
1684108466743197400,12.513197509765625,-0.08777589860856533,0.4014233303517103,-0.12414192797541618
