time,seconds_elapsed,z,y,x
1684099528179153700,0.037153564453125,-1.1656675809383392,1.945046272292733,-2.598899180097878
1684099528189149700,0.047149658203125,0.3758522512435913,1.4483563953161238,-0.24060002344995735
1684099528199144700,0.057144775390625,1.343234809631109,2.8633628942161797,0.9755842772826552
1684099528209140500,0.067140380859375,2.4826760624229904,3.0631793641179796,2.8350021843895314
1684099528219135500,0.077135498046875,3.446134140843153,1.7824287754505872,4.491199073848128
1684099528229131800,0.0871318359375,4.38871309736371,-0.4005950628340244,4.776285889278352
1684099528239126800,0.097126708984375,4.836918052634597,-0.10978723940849304,4.7629479765385385
1684099528249122600,0.10712255859375,0.5681394946843386,-0.7979588886618614,-0.06792991914898157
1684099528259117600,0.11711767578125,-2.939485764431953,-3.0308786844938993,-3.4859672617986797
1684099528269113600,0.127113525390625,-1.587093834877014,-1.4432014967709779,-1.612557069696486
1684099528279108600,0.137108642578125,-1.8223387610346078,-0.9689935007154941,-3.070252663505077
1684099528289104000,0.147103759765625,-0.7012877359360457,-0.7906751613944768,-3.9301124202847477
1684099528299099600,0.157099609375,0.6396306134462356,-0.42725978239774703,-3.897786021697521
1684099528309094700,0.1670947265625,2.202640977424383,-0.11008008487522601,-3.565221708038449
1684099528319090700,0.177090576171875,1.7789689903855324,-0.3015940058559179,-2.9511329476058483
1684099528329085700,0.187085693359375,-1.9064894548833369,0.4068003472149372,1.7572376355707644
1684099528339081500,0.19708154296875,-4.979573542422056,0.8862947592407464,1.7595017811104654
1684099528349076700,0.20707666015625,-4.955249833026528,-0.03007832739949226,0.5457204498663545
1684099528359072800,0.21707275390625,-2.6120705040991306,-0.32265959023833274,0.7909867115616798
1684099528369067800,0.22706787109375,-0.11666238587498665,-0.418337640273571,-0.881739287893474
1684099528379062500,0.2370625,2.6665345002144574,-1.264811261257529,-2.480364570610225
1684099528389058600,0.24705859375,2.7018518973112107,-1.4546470198929309,0.4432388572961092
1684099528399053600,0.257053466796875,0.9028022419273852,-0.7124936050832271,2.869187362585962
1684099528409049900,0.2670498046875,-1.280899057227373,-0.2224924120903015,2.783935429497063
1684099528419044600,0.277044677734375,-2.5584973193436857,0.09410217902064323,2.2462463103950023
1684099528429040600,0.28704052734375,-3.028987171658873,0.475846995434165,0.4601303708642721
1684099528439035600,0.29703564453125,-2.5704531300753355,0.5259072036325931,-1.1668544526353477
1684099528449031700,0.30703173828125,-1.3595312799155712,0.035351883888244624,-0.9272992620632052
1684099528459026700,0.317026611328125,-0.5117617739021778,-0.2042576672196388,-1.3364832895442842
1684099528469022700,0.327022705078125,0.47725393962264057,-0.5109551336944103,-1.079560492324829
1684099528479017700,0.337017822265625,1.5384113447725771,-0.5968915419161319,1.9860931529521941
1684099528489012700,0.3470126953125,1.81511699308753,-0.19158523265123367,3.7826860628336667
1684099528499007700,0.3570078125,0.9432482340842485,0.14144494495391846,2.3450351859271525
1684099528509002800,0.367002685546875,-0.6377542981803417,-0.10637187800705432,1.7393536038339137
1684099528518998500,0.37699853515625,-0.19767302813231943,-0.4924895026773214,2.153166460159421
1684099528528993500,0.38699365234375,-0.47898061728477476,-0.5176823961228132,1.624737336833775
1684099528538989800,0.39698974609375,-2.1317776351720092,-0.5168932915717364,-0.7298129886746406
1684099528548984800,0.40698486328125,-2.265402261763811,0.4106301346361637,-2.265889460758865
1684099528558980600,0.416980712890625,-0.35933366264104843,0.34100714783370495,-1.3636729097649454
1684099528568975600,0.4269755859375,-0.3289998991757631,0.8984820406407117,0.37795448421984906
1684099528578970600,0.436970703125,-2.231756012749672,0.47834290390312667,1.3102438096553086
1684099528588966700,0.446966552734375,-1.845360155659914,0.87129358946383,1.4499877959102392
1684099528598962000,0.4569619140625,-1.2170476395636796,0.8267097668498754,-0.2123208544269204
1684099528608957700,0.466957763671875,-0.2617471486359835,0.6929489466577768,-1.679738216304779
1684099528618952700,0.47695263671875,-0.991032606305182,0.44437107619643207,-3.485307628846168
1684099528628948700,0.48694873046875,1.3847925624221562,-0.07554360902309418,-3.873845174139738
1684099528638943700,0.49694384765625,2.291081477421522,-0.40909459563195705,-1.56710844694674
1684099528648939500,0.506939453125,1.4756564901739357,-0.3040957595437765,-0.5399088409781456
1684099528658934800,0.516934814453125,0.0989350060045719,-0.2075917800784111,-0.5350336361572147
1684099528668930800,0.526930908203125,-0.8157268928036093,0.0622357991605997,-0.12146043380647897
1684099528678925800,0.53692578125,0.39533495034873484,-0.2173597253769636,-0.2519172440171242
1684099528688920800,0.5469208984375,3.6458921585559843,-1.2666729634761809,-1.2276818463027477
1684099528698916600,0.55691650390625,4.640433065243065,-1.294412618795037,-3.049847881118953
1684099528708911600,0.56691162109375,4.19744613688141,-0.756610394707322,-3.9370711533814666
1684099528718908000,0.576907958984375,2.969734772223234,-0.2737561508595943,-2.654222131130099
1684099528728903000,0.58690283203125,1.6923592129468916,0.4506774828642606,-1.4466677115768194
1684099528738898700,0.596898681640625,0.7285767248779534,0.5000982241153716,-1.7658055574297904
1684099528748893700,0.606893798828125,0.612954787966609,-0.43665655629634853,-2.489035076060891
1684099528758889700,0.6168896484375,1.676703963175416,-0.06202127962708473,-2.5775194151997565
1684099528768884700,0.626884765625,2.1794418881446123,0.9580623568564652,-1.1335633006691932
1684099528778880800,0.636880859375,1.1940128009349107,1.4454828857064246,1.6911474990695714
1684099528788875800,0.646875732421875,-2.5826328126907345,1.9367308638900518,4.267495532402396
1684099528798870800,0.656870849609375,-7.967422648006677,1.601096056744456,4.997099846762419
1684099528808866800,0.66686669921875,-10.453511149221658,0.42518999038636685,3.4822505793631073
1684099528818861800,0.67686181640625,-7.828467766302824,-1.0629594861358405,0.4599292953342199
1684099528828857600,0.686857666015625,-2.550464819535613,-0.7978384771525859,-0.8448223466455936
1684099528838852600,0.6968525390625,1.9904279672861098,0.14084230288565158,-0.22936229785978793
1684099528848849000,0.706848876953125,4.821958676172793,0.40258886699974533,0.5184153865724802
1684099528858844000,0.716843994140625,5.226059993562102,1.4005232155174017,1.4411521630257367
1684099528868839700,0.726839599609375,4.860859484714269,1.496715644815564,1.4498486797004937
1684099528878834700,0.736834716796875,2.9068144979298114,1.5881535730630159,0.921271964597702
1684099528888829700,0.74682958984375,-0.9714511230006814,1.691314087808132,0.9519728078097105
1684099528898825700,0.75682568359375,-5.117359964868426,1.2600164281964301,1.0028571918725966
1684099528908820700,0.76682080078125,-14.00261232806444,1.164908871525526,-1.2933277461677788
1684099528918816800,0.776816650390625,-12.53341655833721,-0.08295417754054069,-1.461373697799444
1684099528928811800,0.786811767578125,-8.12480399776101,0.28570319376289843,-0.8082622560113668
1684099528938807800,0.796807861328125,-4.708880286264419,1.8100427585631609,-1.278396134495735
1684099528948802800,0.806802734375,-1.2720938194811344,1.044759228056669,-4.776519990295172
1684099528958798600,0.816798583984375,31.06570645172596,5.916483221134543,-7.544575421354174
1684099528968793600,0.826793701171875,14.915278961402176,-3.2121085273474455,0.8389239362567663
1684099528978790000,0.836789794921875,-5.202076475906372,-8.360312543290853,0.2808633525162935
1684099528988785000,0.846784912109375,4.181336421340704,-0.9351660499155521,0.6339683499008417
1684099528998779600,0.856779541015625,-0.8189490697205066,1.6541636300653217,1.6982412567228078
1684099529008775700,0.866775634765625,-0.8222679850101471,1.2298410701632498,1.087398930865526
1684099529018770700,0.876770751953125,-0.3471719540737569,0.7939946612060069,-0.72619596722126
1684099529028766700,0.8867666015625,-1.9532626042351124,0.8201035004526376,-2.9959552551507946
1684099529038761700,0.89676171875,-2.802708811289072,1.5757687232643365,-4.158474601191282
1684099529048757800,0.9067578125,-2.98839271094203,2.8866853176146745,-4.3245816937148565
1684099529058752800,0.916752685546875,-6.423501599901914,3.811911572796106,-5.050373171788454
1684099529068748800,0.926748779296875,-19.55555625156164,4.105257390266656,-5.2915989259213205
1684099529078743800,0.936743896484375,-18.462945723527667,3.6930560607910152,-1.4951350976258515
1684099529088739600,0.946739501953125,-2.127707609254122,3.6688837425649163,2.711796952742338
1684099529098734600,0.956734619140625,9.126064860352873,1.4388099838137627,3.1333848269835114
1684099529108729600,0.9667294921875,19.90322987154722,3.2769244061291216,4.240158028143644
1684099529118726000,0.976725830078125,27.023316728782653,-1.6283037971436976,-4.383706375117599
1684099529128720600,0.986720703125,3.768634156605601,-7.139570725384354,-3.235950590705871
1684099529138716700,0.996716552734375,-0.9836106396108865,-4.3831566322803495,-0.7639248093739152
1684099529148711700,1.006711669921875,4.038862717860937,-3.1888141609996556,-1.3874667500674724
1684099529158707700,1.016707763671875,2.3630513196110723,-4.1739480646550655,-0.36952509404867884
1684099529168702700,1.02670263671875,-1.362580730614066,-3.341827963194251,1.3071142794579267
1684099529178698800,1.03669873046875,-6.026369244742393,-2.765779302820563,3.8729470562562343
1684099529188693800,1.04669384765625,-5.802074751666188,-4.218685616526008,5.5099429861605165
1684099529198688800,1.056688720703125,-2.336674184817076,-4.005368444538116,5.716544586157799
1684099529208684800,1.066684814453125,1.7198276501089333,-4.419750625184178,4.988729493302107
1684099529218679600,1.076679443359375,4.16938820939362,-3.3389041847020384,0.41612960883527994
1684099529228675600,1.086675537109375,1.5393565166682004,0.29398996059298516,-1.9848294166266918
1684099529238670800,1.0966708984375,2.0136796635359526,1.8295692968100308,-7.531420756226778
1684099529248667000,1.1066669921875,3.8355800331532954,3.8883945084959266,-8.669961845308542
1684099529258661600,1.11666162109375,2.122311887690425,4.075141653466225,-6.490088580009341
1684099529268657700,1.12665771484375,0.31697511486113067,4.38789359767437,-4.352118519937992
1684099529278652700,1.136652587890625,0.8890402585566043,5.432547611790895,-3.8850563039839265
1684099529288648700,1.146648681640625,0.6568842383250594,5.457218527188897,-0.7278177232041955
1684099529298643700,1.156643798828125,-1.2083499538451432,4.8481397038728,1.0695891334086656
1684099529308638700,1.166638671875,-5.430495355436205,5.213385220906138,0.6740723967522382
1684099529318634800,1.176634765625,-4.735055761006474,5.176466818353534,1.8961960244059561
1684099529328629800,1.186629638671875,0.44541444776952266,4.061836766213179,3.6766868175312872
1684099529338625800,1.196625732421875,1.0294260498464107,2.4354712436556816,4.312660369774699
1684099529348620500,1.20662060546875,-0.676833093637228,0.06750584851801394,4.264886811208725
1684099529358616800,1.216616943359375,-0.440182392334938,-5.204942386731505,0.6071539927333593
1684099529368611800,1.22661181640625,3.418996250809729,-4.345046389594674,-1.9518267262130975
1684099529378607900,1.23660791015625,3.4218285516262053,-1.2845201703339815,-1.572095879970491
1684099529388602600,1.2466025390625,-0.130123340472579,0.5961521217256784,-0.1773775513395667
1684099529398597600,1.25659765625,-2.3045693200260398,3.1559359737485644,0.6682236707240343
1684099529408593700,1.26659375,1.4989561172187327,5.597765646520257,-0.17721710008084773
1684099529418588700,1.276588623046875,-1.8257658128738403,3.4627725564330816,-2.2861609721541405
1684099529428584700,1.286584716796875,-2.4802076264828443,-2.260119937446713,-2.733365810471773
1684099529438579700,1.296579833984375,1.2185329096853732,-1.0445458775669336,-0.19472294615507124
1684099529448575700,1.30657568359375,-0.2140963396668434,-0.44703824957907196,-0.06989888113439083
1684099529458570800,1.31657080078125,0.37501696946322916,1.3753046031087637,0.7811550533771514
1684099529468566800,1.32656689453125,1.7645763078957795,2.5380221020698546,-0.042291327762603755
1684099529478561500,1.3365615234375,2.529562316760421,0.7490706468522548,-0.8486772685080766
1684099529488556500,1.346556640625,1.9619915618747472,-0.3528542374938726,-1.0217886868357657
1684099529498552800,1.356552734375,0.3220172006815672,-0.2465916650801897,-1.5989093603551388
1684099529508547800,1.3665478515625,-0.4099900831669569,0.2989040361195803,-1.8471973079591988
1684099529518543600,1.376543701171875,-0.1871475424647331,1.4631687645226716,-1.2661217593342065
1684099529528538600,1.38653857421875,0.46059740385413167,0.46296004133224483,1.1032739608675242
1684099529538534700,1.39653466796875,1.370855807006359,-2.7997587293118236,3.5796278345316646
1684099529548529700,1.40652978515625,0.42738837721347805,-3.2851755171239376,1.3392542155623435
1684099529558525700,1.416525634765625,-2.0843629730463027,-0.30016718792319297,2.1570967853456735
1684099529568520700,1.426520751953125,-4.561971815207601,-0.25206629709899425,0.22023791116178035
1684099529578516700,1.436516845703125,-4.676727490678429,1.6333242556542158,-1.6929150932639836
1684099529588511700,1.44651171875,0.1646264985769987,1.2775053231358526,-1.2603326545387505
1684099529598506800,1.4565068359375,3.1850358115047213,-0.7443985633879899,-1.0058861843049525
1684099529608502500,1.46650244140625,2.6734514399960636,-1.655511537542939,1.1092886911123991
1684099529618497500,1.47649755859375,0.6914236367866397,-3.54677478172183,4.297499041000008
1684099529628493800,1.486493896484375,-0.32188129934221504,-3.599221592795849,3.6250112830907106
1684099529638488800,1.49648876953125,0.26140695689618587,-1.4859049124658106,1.1776789212495087
1684099529648484600,1.506484619140625,-0.48491935968399047,-4.964824301579594,-1.3985422708332538
1684099529658479600,1.516479736328125,0.41918168988227844,-6.347457640141248,-2.443807110324502
1684099529668475600,1.5264755859375,1.3519599678784608,-7.69018508477211,-2.0185282726109026
1684099529678470700,1.536470703125,0.9845476282000541,13.416203601717948,2.1998615758389235
1684099529688466000,1.5464658203125,-2.325796816971898,21.52955447757244,3.3052865772604942
1684099529698461700,1.556461669921875,0.8015732797667384,-1.8847884952068328,5.2706408935666085
1684099529708456700,1.566456787109375,4.176083615379035,-5.380905687358975,4.515245719867944
1684099529718452700,1.57645263671875,1.4780623822718857,-1.4139099358350038,-2.47863000190258
1684099529728447700,1.58644775390625,0.4624626132041216,0.021463059267401694,-1.7996967211157082
1684099529738443500,1.596443603515625,0.7921259447246789,-3.055937137904763,1.3553086937844752
1684099529748438800,1.606438720703125,0.8852350210547447,-5.178631302911043,0.1794447130024433
1684099529758434800,1.616434814453125,-2.583222010755539,-0.4971346981346607,-3.0358091266334055
1684099529768429800,1.626429931640625,-4.471964504285157,1.5103630618959665,-0.5780231753170489
1684099529778424800,1.6364248046875,-6.891129633045196,-1.551377209329605,0.07382277657985686
1684099529788420600,1.646420654296875,0.4243032706797123,-1.541841319221258,-1.0215870267838238
1684099529798415600,1.65641552734375,5.32442509072423,-0.03637538171708583,-2.8834312842547893
1684099529808412000,1.666411865234375,3.908267668223381,0.3055664166182279,-3.1341414905697107
1684099529818407000,1.676406982421875,-3.8883518383979796,3.3755127906531093,-0.9776783269524574
1684099529828402700,1.686402587890625,1.0402106248416005,3.5952696402996778,0.7379395965069532
1684099529838397700,1.696397705078125,1.9250410106182096,3.260677620205283,2.0723188995093107
1684099529848393700,1.706393798828125,-0.9814227741777897,3.30676717120707,3.958652870592475
1684099529858388700,1.716388671875,-0.3468915296971798,2.395356090888381,3.3793186126768586
1684099529868384800,1.726384765625,0.5977461129188537,-0.14619009365439414,0.3811433433890343
1684099529878379800,1.7363798828125,1.5605460196912289,-4.2076276314169165,-2.1207816093832252
1684099529888374800,1.746374755859375,1.2494717994369566,-5.567510208988189,-3.5226164920210836
1684099529898370800,1.756370849609375,-0.0097205990254879,-2.2884476217865943,-2.0377900224417447
1684099529908365800,1.76636572265625,-1.2305261298179626,1.0666513263911008,2.0134914474874734
1684099529918361600,1.776361572265625,-2.216321127730608,1.8171587280482053,4.223036797472834
1684099529928356600,1.786356689453125,-1.397277365463972,1.045921257573366,2.0230103864610194
1684099529938353000,1.796352783203125,-0.8213456825334579,-3.640153907164931,-8.507634271323681
1684099529948348000,1.806347900390625,0.613439283547923,-4.2501995296865696,-3.1431910584658382
1684099529958343700,1.81634375,1.9404875860750674,-3.029937604251504,-3.1442987274467944
1684099529968338700,1.826338623046875,3.2783868798971176,-3.4432138694822787,-2.1169377934366462
1684099529978334700,1.836334716796875,5.808526119762659,-4.381200822037458,2.9551755009949208
1684099529988329700,1.846329833984375,-4.501904592257738,-0.5758452467560767,5.15347757243216
1684099529998324700,1.85632470703125,0.35083464129976927,0.25476854179501535,4.526189723208546
1684099530008320800,1.86632080078125,0.13369769182801247,0.7571341263204813,-1.1010317348986864
1684099530018315800,1.876315673828125,-13.592373823094368,2.0441186409413814,-2.7643723586320874
1684099530028311800,1.886311767578125,-9.62708721357584,3.8837615879982708,-0.026338556349277495
1684099530038306800,1.896306884765625,14.548064774644374,0.07451134336590766,3.0889988650292155
1684099530048302600,1.906302490234375,9.082585199588536,2.106235782158375,2.1179040081202984
1684099530058297600,1.916297607421875,-3.3904654451131817,2.4151801507771014,-0.19843875180780887
1684099530068294000,1.9262939453125,1.1590355955779552,2.0442092418342828,0.45035950295627114
1684099530078289000,1.936288818359375,0.9841735341906547,-0.3164642427295446,1.0469441708803175
1684099530088284000,1.946283935546875,1.1057179930187762,-0.5285363830924034,0.10527356137633323
1684099530098279700,1.95627978515625,-0.12756620333567262,-2.8921798233777283,-1.5974159069269895
1684099530108274700,1.966274658203125,-2.2612090478576716,-3.6091105341255663,-3.3378947153985496
1684099530118270700,1.976270751953125,-2.069346751830727,0.7389689395546912,-4.27724301943481
1684099530128265700,1.986265625,-0.6898397285960615,3.688879067367315,-1.1690005247533322
1684099530138261800,1.99626171875,-0.905252411558479,2.42288531832695,2.3946236849606035
1684099530148256800,2.0062568359375,-0.12730638335570693,-0.14338088145256042,0.9661918872982262
1684099530158252800,2.016252685546875,2.6697289123415944,-2.4689988347262144,-0.08324877657294273
1684099530168247800,2.026247802734375,2.0447509474955496,-3.1057313886433837,-0.7000444578766822
1684099530178242600,2.03624267578125,1.285143855190277,-2.5469144335776566,-3.3530653965234753
1684099530188238600,2.046238525390625,0.47978009709939357,-5.1234074283391235,-6.085300157138705
1684099530198233600,2.056233642578125,-2.764664619576931,-10.596576388853787,-4.208493892857432
1684099530208230000,2.06622998046875,-5.914720887637138,-15.071873544692993,0.9221721283078194
1684099530218224600,2.076224609375,-6.5747454698145384,-13.508466874873637,4.069638964396715
1684099530228220700,2.086220703125,-7.772316255491972,-6.492283459705114,2.327988774058223
1684099530238215700,2.096215576171875,-6.664257982957363,-0.127765963691473,2.5734984891206025
1684099530248211700,2.106211669921875,-6.82922291970849,3.6025136200785637,-0.6777262430846691
1684099530258206700,2.116206787109375,-0.4148199875414371,10.735125612366199,1.7081588396251202
1684099530268202800,2.12620263671875,-1.4358704232305288,4.747490295165777,8.41983265375197
1684099530278197800,2.13619775390625,-6.323211672157049,-6.64725424118638,7.358181327605247
1684099530288192800,2.14619287109375,-2.374604394760728,2.4367080919742583,-1.5721806356444954
1684099530298188800,2.156188720703125,9.741199330446124,6.180372642496228,-1.9850071112811565
1684099530308183600,2.16618359375,9.313463162708281,2.3873089780330656,-0.7896428957372903
1684099530318179600,2.1761796875,0.4618827674895525,2.1828432210206983,-3.0312606695488094
1684099530328174800,2.1861748046875,-4.006957759556174,2.046081465446949,-7.639339279153942
1684099530338171000,2.1961708984375,-5.473959234109521,4.365367293089628,-11.325979043161869
1684099530348165600,2.20616552734375,-5.800172132915258,2.0923516337126493,-7.634422865539789
1684099530358161700,2.21616162109375,2.477882398405671,2.661611072337627,-3.451353629057109
1684099530368156700,2.22615673828125,10.235834028458594,1.0187287147432564,-2.731113939891755
1684099530378151700,2.236151611328125,7.316989485517143,4.1706665587663645,-1.2450775100007652
1684099530388147700,2.246147705078125,-0.12485679824650286,4.989750653043389,0.8667471782058477
1684099530398142700,2.256142822265625,-2.963367575278878,4.503372911244631,2.690955240243673
1684099530408138800,2.266138671875,-7.8388412762790916,3.6806326325476166,4.945682963258028
1684099530418133800,2.2761337890625,-11.203842025268077,4.420154529809952,3.2827252013623713
1684099530428129800,2.2861298828125,-0.3358616016387939,3.2353514557689427,-1.04632399315536
1684099530438124500,2.29612451171875,4.547805927211046,-1.947882957023382,-1.5278610169246791
1684099530448120800,2.306120849609375,3.8929415042757984,-2.753157137134671,-1.5642489658623933
1684099530458115800,2.31611572265625,2.5463585532605646,-0.627725656118989,-0.8406452070914209
1684099530468110800,2.32611083984375,1.041967551511526,-0.5053475229457021,0.8636100492238998
1684099530478106600,2.336106689453125,-1.1941519171446562,-3.0018478203207253,0.8283402906611561
1684099530488101600,2.3461015625,-1.7771020274698732,-2.7616306587085124,0.2786236107654869
1684099530498098200,2.35609814453125,0.7198410452365874,-4.109041877241433,0.8068110342897474
1684099530508093200,2.36609326171875,3.486186749768257,-3.5359251786664125,-0.5541008863292635
1684099530518089000,2.3760888671875,2.2435633549213407,-0.7866305621787906,-0.05696180428043007
1684099530528084000,2.386083984375,1.8930267467200754,1.8015823887318372,-1.4217285006314515
1684099530538080000,2.396080078125,0.8635060043275355,2.7244097660779953,-1.4553005153656005
1684099530548075300,2.4060751953125,-1.8301450508713721,1.5337141268670558,-1.3832828885115682
1684099530558071000,2.416071044921875,-2.408531798803806,5.658827725726366,-3.6655844087585803
1684099530568066000,2.426066162109375,-1.0767594634294508,6.859035874170065,-2.072528450606763
1684099530578061000,2.43606103515625,-0.8090443462997674,3.5463860746651887,2.5219728845447302
1684099530588057000,2.44605712890625,-1.210983809480071,-2.3512217656075953,4.382506936199963
1684099530598052000,2.456052001953125,-0.4512508988380432,0.9865046074867247,-1.749084724253416
1684099530608048000,2.466048095703125,1.0541045640289783,4.049050349876285,-2.3286156737849115
1684099530618043100,2.476043212890625,0.034196868634223936,4.984416890799999,-1.8863748876154423
1684099530628039200,2.4860390625,-0.09421732983291149,3.980452614468336,-1.7772098717585205
1684099530638034200,2.4960341796875,1.4215817856371402,0.9880424845784902,-1.6302677906930445
1684099530648029200,2.506029296875,0.9638976388812065,-0.7031561601564288,-0.6858410143487155
1684099530658025000,2.51602490234375,-0.9499404251992702,-2.6541975812107323,0.04792560732252896
1684099530668020000,2.52602001953125,-2.9450656103909014,-4.022918129754066,0.7023063383940606
1684099530678016300,2.536016357421875,-2.4878385597527024,-3.6855069605857134,0.33883353012166917
1684099530688011300,2.54601123046875,-1.1161118151307106,-2.1720558695465324,-0.3868137171756476
1684099530698007000,2.556007080078125,-0.4168634760677814,0.5485322924166918,-0.784309060428664
1684099530708002000,2.566001953125,-0.12614625353515146,2.0256851586282254,-0.3428670964866876
1684099530717998000,2.575998046875,-0.0013327099084854126,1.5338754549086093,0.5578026634566485
1684099530727993000,2.5859931640625,-0.10910568688511847,1.8629016575694084,1.6203770957976578
1684099530737988000,2.595988037109375,-0.002398293313384056,2.651695827522874,2.544061966755986
1684099530747984100,2.605984130859375,0.18549802169203758,1.3531062153041362,2.926162757000327
1684099530757979100,2.615979248046875,-0.8302420326292514,0.9825158301115036,1.8690997815571724
1684099530767975200,2.62597509765625,-1.8707523710697889,1.3123118481010199,0.3409509606670588
1684099530777970200,2.63597021484375,-2.0518132870972154,1.3779144933462142,-0.9421671608492731
1684099530787966000,2.645966064453125,-1.3027455628544091,0.31293840669095513,-1.7878128065764902
1684099530797961000,2.6559609375,0.2564209851771593,-1.6351467949062586,-1.9404449159771202
1684099530807957200,2.665957275390625,1.2502268555879592,-0.30792671600878235,-2.908103660957515
1684099530817952300,2.6759521484375,2.048274591577053,1.4635305835723875,-3.4783211309596895
1684099530827947300,2.685947265625,2.8497055402636526,4.073367629531026,-4.081155506928265
1684099530837943000,2.695943115234375,3.349945803198218,5.743869230934977,-2.5166192485570904
1684099530847938000,2.70593798828125,3.7551246866911647,5.175270886567235,-0.7571807419411838
1684099530857934000,2.71593408203125,2.4771342103868723,3.5057349153250454,0.14584091489054263
1684099530867929000,2.72592919921875,0.6600730974942446,0.4627297397077083,1.2647577775046228
1684099530877925000,2.735925048828125,-1.3299801912605762,-2.4762042360603806,2.525095108218491
1684099530887920000,2.745920166015625,-2.884650012394786,-3.5139205598682164,1.9425895267903803
1684099530897916200,2.755916259765625,-2.575049810215831,-3.3393513439476488,1.225587650502473
1684099530907911200,2.7659111328125,-1.06337040502429,-4.064989677286148,1.1361043634541332
1684099530917906000,2.775906005859375,0.9452209954619407,-6.901588483217358,-1.0305173522144555
1684099530927902000,2.78590185546875,2.654543033647537,-2.8872803608983753,-4.274548958045244
1684099530937897200,2.795897216796875,2.4774136118501424,-0.9503674184396862,-3.009993132853508
1684099530947893200,2.805893310546875,1.7855092058092354,1.9662650014102458,-1.2548232434675097
1684099530957888000,2.815887939453125,1.4006594091176985,6.694266167730093,1.652474800195545
1684099530967884000,2.825884033203125,-0.6749146927952766,5.238402757784724,10.273473731023072
1684099530977879000,2.835879150390625,-4.153167726954818,-6.5834326341390605,5.753739467564225
1684099530987875000,2.845875,-4.279398151642084,-10.267877518451213,3.0217621888414024
1684099530997870000,2.8558701171875,-3.720940677538514,-7.399618668887019,-4.878469375684857
1684099531007865000,2.865864990234375,-0.10339081636965274,-2.8468051426470278,-4.838361237180233
1684099531017861000,2.875861083984375,0.22444237711429596,-1.1660282309442758,0.4875504388399422
1684099531027856100,2.885856201171875,-1.1061141527295113,-0.37088118483275173,1.4743614819273352
1684099531037852200,2.89585205078125,-1.5098895991653203,3.618458208185434,2.0289149343296886
1684099531047847000,2.905846923828125,-0.6408610320240259,2.1771756967782974,2.9455750212177634
1684099531057843200,2.91584326171875,-0.06665887629985809,-0.6513204667180776,0.9516138383042066
1684099531067838200,2.925838134765625,-0.9652309333115816,-2.0514625739634034,-1.9457259251199661
1684099531077834200,2.935834228515625,-0.8714116628855466,-2.318138995695114,-2.884363888929784
1684099531087829000,2.9458291015625,-0.027019524350762367,-1.3793401422351599,-1.7095413800247012
1684099531097824000,2.955823974609375,0.08202946391105652,-0.15089023416936398,-0.6989075628012419
1684099531107820000,2.965820068359375,0.7182441314339637,-0.40377369287014003,-1.1441759531635791
1684099531117815000,2.97581494140625,0.8675491422384977,0.823655639976263,-2.1920180227316917
1684099531127811000,2.98581103515625,1.498230141031742,2.180084277701378,-2.2226573450148104
1684099531137806000,2.99580615234375,1.8411264636129139,1.048110876572132,-1.3611856229938566
1684099531147802000,3.005802001953125,0.7255360420078039,0.9550830487847327,-1.184205254278332
1684099531157797000,3.015797119140625,-1.1718155821740626,1.5212503666132688,-0.32738892031516875
1684099531167793200,3.025793212890625,-0.4868611414015293,1.696675907102227,0.2790737656857818
1684099531177788000,3.035787841796875,0.6398895566433668,1.8201865514367819,0.5179247900439427
1684099531187783000,3.045782958984375,0.5401975947916507,3.3822914910078046,1.723538925717026
1684099531197779200,3.055779296875,1.0244342329084872,3.3509751462459563,1.698216414542496
1684099531207774200,3.065774169921875,0.9963082086205481,2.3563386702299116,1.0863256025455892
1684099531217770000,3.07577001953125,0.2012298438310623,1.2399164739757775,0.7728289774499834
1684099531227765000,3.085764892578125,0.5153279419511556,1.261928399297595,-0.12143880649656057
1684099531237761000,3.095760986328125,-0.2243096906453371,1.203725216653943,-0.00031929508224129677
1684099531247756000,3.105756103515625,0.0015653496205806732,0.8594768949419259,-0.6662771397661418
1684099531257751000,3.1157509765625,-0.22730419628620147,0.8864397206693887,-0.9564521451808512
1684099531267747000,3.1257470703125,-0.7778413987845182,-0.03682020287513733,-1.1816091003052889
1684099531277742000,3.1357421875,-0.2688327229827642,-0.1555371831923723,-1.4224915939584373
1684099531287738000,3.145738037109375,0.3628407939791679,-0.08786708402335643,-1.0486878727424889
1684099531297733000,3.155733154296875,0.25218495504260063,-0.10141279429495334,-0.7107830748382955
1684099531307729000,3.16572900390625,-0.09357435575425624,-0.31449732657074925,-0.34379619403034445
1684099531317724000,3.175723876953125,-0.05280629203617573,-0.6268927124261856,0.20233049854934215
1684099531327720200,3.18572021484375,0.11869710657298564,-0.26307518236935135,0.42818413070105016
1684099531337715200,3.195715087890625,0.11243103191554546,-0.21805413738191126,0.1725966006733477
1684099531347710200,3.205710205078125,-0.4010930754840374,-0.9007564153134823,0.09363156583420931
1684099531357706000,3.2157060546875,-0.34109774872660636,-1.861661886641383,0.08360738075226545
1684099531367701000,3.225700927734375,0.09085983609855175,-1.9892828889042138,-0.01034727955646813
1684099531377697000,3.235697021484375,0.25950667623281476,-2.028946790772676,0.12677169195711613
1684099531387692300,3.2456923828125,0.051585810330510136,-2.408839841839671,0.685563950973004
1684099531397688000,3.25568798828125,0.2069680952221155,-2.2392431536346673,0.9726088416684419
1684099531407683000,3.26568310546875,0.20161504375636577,-1.605702673757076,1.338787182572484
1684099531417679000,3.27567919921875,0.812092627954483,-0.9422241517335176,1.8068185358196496
1684099531427674000,3.285674072265625,0.14113924000561237,-0.5698252558141946,1.945539462637156
1684099531437669000,3.295669189453125,-0.6722615479379892,-0.14212942008674143,1.9989317378677427
1684099531447665000,3.305664794921875,-0.6109288350969553,0.017149872243404387,1.9061061546541749
1684099531457660200,3.31566015625,-0.39333939261734485,-0.33727672913372514,1.2514286325931547
1684099531467656200,3.32565625,-0.2161310603648424,-1.1949538811773062,0.6903451939001679
1684099531477651200,3.335651123046875,-0.4604594566881656,-1.1482441524505616,0.482484533752501
1684099531487647000,3.34564697265625,-0.5526625240892171,-0.9265157104700803,0.46139323040693997
1684099531497642000,3.35564208984375,-0.053692427220940586,-0.6769640265405178,0.12099179338142275
1684099531507638800,3.365638671875,0.008510054191946982,-0.16440087312757967,0.10676423832550644
1684099531517633800,3.3756337890625,0.002261515191197395,0.24223054726123808,0.32044600584208965
1684099531527628500,3.385628662109375,0.29680326444804667,0.4458575153619051,0.44194531035423273
1684099531537624600,3.39562451171875,0.6644125880032777,0.3908849852025509,0.4638771561771631
1684099531547619600,3.40561962890625,0.352210094371438,0.20452070206999778,0.37906829068064685
1684099531557615600,3.41561572265625,0.2488081720858812,-0.11191373004317283,0.09925152460783719
1684099531567610600,3.425610595703125,0.16403554694652556,-0.3281073342502117,-0.023743425289541483
1684099531577606700,3.435606689453125,0.1854015755802393,-0.5359229862123728,0.08947539600282907
1684099531587601700,3.4456015625,0.3142810534715652,-0.33993338112235066,0.032307401625812054
1684099531597597700,3.45559765625,0.14675181919038294,0.23174071742892263,-0.3909641879186034
1684099531607592700,3.4655927734375,0.09372282431423663,0.6114554893195628,-0.64335708662346
1684099531617587500,3.47558740234375,0.3546872981399298,0.8613444423794746,-1.0773100830495357
1684099531627583500,3.48558349609375,0.35878421206474304,1.028584338325262,-1.3372510590463875
1684099531637578500,3.49557861328125,0.49479251892268655,0.8370698328226804,-1.3168841244526206
1684099531647574800,3.50557470703125,0.6248311037212609,0.672470806774497,-1.4889038020208476
1684099531657569500,3.515569580078125,0.3734638948023319,0.834748696398735,-1.5242315743811428
1684099531667565600,3.525565673828125,0.7597340796858072,1.0302706839770077,-1.3298245623074472
1684099531677560600,3.535560546875,1.4019441882312298,1.0569856724232434,-1.151322975374013
1684099531687555600,3.5455556640625,0.8367980301439761,0.9644541037201881,-0.7684621605426073
1684099531697551600,3.555551513671875,0.5574778154164552,0.8477040395617484,-0.29842414364814757
1684099531707546600,3.565546630859375,0.6635322980374098,0.6385393110781907,0.0005225625693798065
1684099531717542700,3.575542724609375,0.5807710127204656,0.36267011358737944,0.09443871749863028
1684099531727537700,3.58553759765625,0.41813422665596006,0.1668318996667862,0.014522154088318346
1684099531737533700,3.59553369140625,0.2872732195585966,0.012283142989873885,-0.10951076055467128
1684099531747528400,3.605528564453125,0.16491642143428326,0.0998585505902767,-0.2482652973808348
1684099531757524500,3.6155244140625,-0.10691665240824222,0.3254629572212696,-0.3018254765242338
1684099531767519700,3.625519775390625,-0.21182547212541103,0.5093354235380888,-0.2814005281329155
1684099531777514800,3.6355146484375,-0.03765139300227165,0.6409639078766107,-0.2962283871695399
1684099531787510500,3.645510498046875,0.09606266543865204,0.7102227375417948,-0.1859875587746501
1684099531797505500,3.655505615234375,0.16752046645283697,0.6983546050935984,-0.31148192427232857
1684099531807501600,3.66550146484375,0.35912732641398903,0.6003127485364675,-0.48151042802333827
1684099531817496600,3.67549658203125,0.31357085937559603,0.7547732424080371,-0.48958764375597236
1684099531827492600,3.68549267578125,0.3102782475709915,0.6395446887284517,-0.6074022684060036
1684099531837487600,3.695487548828125,0.2585053902357817,0.3747732238352299,-0.48560325029492374
1684099531847483600,3.705483642578125,0.04330313515365124,0.17291618801653383,-0.10793035949543117
1684099531857478700,3.715478759765625,-0.11202946537733077,0.3632593116521835,0.1160059677928686
1684099531867473700,3.7254736328125,-0.12688333563804627,0.5150450333565473,0.0170817754432559
1684099531877469400,3.735469482421875,-0.03196399501562119,0.4207289193242788,-0.23717925522103905
1684099531887464400,3.74546435546875,0.06613397564291953,0.41826165242791175,-0.4163260081902146
1684099531897460700,3.755460693359375,0.07018120520710945,0.47497781138420103,-0.44790085775777694
1684099531907455700,3.765455810546875,0.07823416328132152,0.6565916851192712,-0.40186522890031334
1684099531917451500,3.775451416015625,0.21685469846427438,0.5884387708693742,-0.37363705941215153
1684099531927446500,3.785446533203125,0.3695610421448946,0.7645733364105224,-0.3554708497330546
1684099531937442600,3.795442626953125,0.22065642883479594,0.7561632354617118,-0.36077129422873255
1684099531947437600,3.8054375,0.20092355436086654,0.4074830687820911,-0.4785454407379031
1684099531957432600,3.8154326171875,0.3101934918969869,-0.03901858970224857,-0.43676454671546816
1684099531967428600,3.8254287109375,0.02399988426864147,-0.4386708187282085,-0.24977804003134368
1684099531977423600,3.835423583984375,-0.08128712111115455,-0.32305998773276806,-0.002456599371880293
1684099531987419600,3.845419677734375,-0.09225392080545425,-0.16685644958615303,0.10013663687929511
1684099531997414700,3.85541455078125,-0.0003682487905025482,0.061115855219960206,0.1748174915932119
1684099532007410400,3.865410400390625,-0.059742813301086425,0.1760018790721893,0.1244654608413577
1684099532017405400,3.875405517578125,0.14677812267541884,0.06676233667433261,0.08669073372036218
1684099532027401700,3.885401611328125,0.1553109732210636,0.21934709980189798,-0.11629603678062557
1684099532037396700,3.895396728515625,0.3265507524579763,0.365492769792676,-0.19654475475475192
1684099532047391700,3.905391845703125,0.37530046257972716,0.3195195386469364,-0.20308321661278605
1684099532057387500,3.915387451171875,0.23211422691643235,0.22996844705939293,-0.3126872084088623
1684099532067382500,3.925382568359375,0.05991057108342647,0.02052197902500629,-0.10460895998775958
1684099532077378600,3.935378662109375,-0.0865659382969141,-0.08746434844136237,0.20783362601026892
1684099532087373600,3.94537353515625,-0.09270341813862323,-0.1673234825760126,0.3731694419004023
1684099532097369600,3.95536962890625,-0.0922778862029314,-0.09936521411538124,0.33153920839503404
1684099532107364600,3.965364501953125,-0.13914075966477393,-0.11373802286088466,0.2273306459017098
1684099532117359600,3.975359619140625,-0.07615326535403728,-0.12841829012036324,-0.028776012629270552
1684099532127355600,3.985355712890625,0.00154021517932415,-0.07229892801344394,-0.005101414792239666
1684099532137350700,3.9953505859375,0.09949205536544323,-0.03971592431664467,-0.22860621879547832
1684099532147346400,4.005346435546875,0.24160510883927344,-0.3586334054172039,-0.27382234796360133
1684099532157341400,4.015341552734375,0.28472879577279087,-0.4945639708638191,-0.15048369919508695
1684099532167337700,4.025337646484375,0.13472235870063304,-0.6767804866671562,0.014760492888838052
1684099532177332700,4.035332763671875,0.12150222712159156,-0.695820702701807,0.27204832402840257
1684099532187328500,4.04532861328125,0.2899246108502149,-0.2637333540171385,0.39863136154562234
1684099532197323500,4.055323486328125,0.10265431878864764,-0.18284078518152236,0.38711905679777264
1684099532207319600,4.065319580078125,0.09426584514975547,-0.30298984412848945,0.2629404500737786
1684099532217314600,4.075314453125,0.057765960270166394,-0.24333763172030448,0.2695201207250357
1684099532227309800,4.085309814453125,0.0676040481954813,-0.07676584429442881,0.2164990168944001
1684099532237305600,4.0953056640625,0.1262362699061632,-0.20076281084120273,0.04744783374294639
1684099532247300600,4.105300537109375,0.12118424721360206,0.1303793610602617,0.09144391959682106
1684099532257296600,4.115296630859375,0.3047334729254246,0.11713351051807402,0.032895430646836754
1684099532267291600,4.125291748046875,0.2877192097604275,-0.03213409088551998,0.07196238953545689
1684099532277287400,4.135287353515625,0.19384791688621042,-0.09712298814654349,0.21879618792086838
1684099532287282700,4.14528271484375,0.17792554061114788,-0.1297264501094818,0.36349399719089265
1684099532297278700,4.15527880859375,0.058470309147238726,-0.024976620346307755,0.4815785248234868
1684099532307273700,4.165273681640625,-0.0012409399718046187,0.0016150339812040328,0.34564825163781643
1684099532317268700,4.175268798828125,-0.008961305090785026,-0.007504092019796371,0.11400032705888151
1684099532327264500,4.185264404296875,0.12363631654083727,-0.02737491365969181,-0.05221987045034766
1684099532337259500,4.195259521484375,0.15161094965934752,0.06812427267730235,-0.041875002046674485
1684099532347255800,4.205255859375,0.1972521723717451,0.016932430100440977,-0.008481412619352341
1684099532357250800,4.215250732421875,0.4399351395756006,-0.21401976729929445,-0.07109072126746177
1684099532367246600,4.22524658203125,0.5286988801777363,-0.17307751605808733,0.026916356237232684
1684099532377241600,4.23524169921875,0.28826924485862254,-0.1986725605636835,0.17041969502568244
1684099532387237600,4.245237548828125,0.06823357827067375,-0.1907429366081953,0.28783728318214413
1684099532397232600,4.255232666015625,-0.09197159673273562,-0.07116670911312103,0.32263679388463495
1684099532407227400,4.265227294921875,-0.1646574782371521,0.04894903208613395,0.28764190674051643
1684099532417223700,4.2752236328125,-0.18576923984885216,0.03139759330451488,0.19005583112686872
1684099532427218700,4.28521875,-0.18669746060967443,0.21368366721272467,0.06634615708887577
1684099532437214700,4.295214599609375,-0.19863281307518482,0.29199498738348484,-0.16361439892500637
1684099532447209500,4.30520947265625,-0.13126783433258532,0.13102233513891695,-0.3320283070862293
1684099532457205500,4.31520556640625,0.09280570946931839,0.08904138849973678,-0.4318273825742304
1684099532467200500,4.325200439453125,0.057873512297868725,0.06469196014106274,-0.4580320834107697
1684099532477196800,4.33519677734375,0.044648704543709755,0.05179506916701793,-0.40680400047674775
1684099532487191600,4.345191650390625,0.010958616387844086,0.048397243422269816,-0.16971899941042065
1684099532497186600,4.3551865234375,0.01953179894387722,0.04185293634533882,0.10887567752152681
1684099532507182000,4.36518212890625,-0.009589081600308417,-0.0190969146579504,0.35238530480787156
1684099532517177000,4.375177001953125,-0.06803717891573906,-0.025135610300302504,0.4859985332228243
1684099532527173400,4.38517333984375,-0.054615387284755706,-0.054201545786857604,0.4676116665303707
1684099532537168400,4.39516845703125,0.08929916265308857,0.021696868023276326,0.2836344246648252
1684099532547164200,4.4051640625,0.21806758138537405,0.13876140495836733,0.1290703242883086
1684099532557159200,4.4151591796875,0.2372457445859909,0.18520692979097364,-0.052107642247527834
1684099532567155200,4.4251552734375,0.14298399108946322,0.09506430205106735,-0.08918839575499296
1684099532577150200,4.435150146484375,0.03370294763743877,0.05166004461050033,-0.05817717141956091
1684099532587145200,4.445145263671875,-0.01272562606036663,0.07061199783980845,-0.10127163225859404
1684099532597141200,4.455141357421875,-0.04080079694390297,0.09658639705181121,-0.006883622033894062
1684099532607136300,4.46513623046875,-0.042565468528866765,0.1123772559016943,0.1362806940585375
1684099532617132300,4.47513232421875,0.15164777453839778,0.11240882008373737,0.16932342422157526
1684099532627127300,4.485127197265625,0.12261807940900325,0.2966974659860134,0.2465202072791755
1684099532637123000,4.495123046875,0.182908589720726,0.4264332684457302,0.07017667516246437
1684099532647118300,4.505118408203125,0.4228717765718698,0.4900374333500862,-0.17934169101938605
1684099532657114400,4.5151142578125,0.5643699130177497,0.6139198336064815,-0.3052789779789746
1684099532667109400,4.525109375,0.707342798191309,0.4702835160881281,-0.19665011482536793
1684099532677105200,4.535105224609375,0.6554010140299796,0.23678864846825598,-0.15151903359219432
1684099532687100200,4.54510009765625,0.44650867274701594,0.020165420672297478,-0.06446940343156457
1684099532697095200,4.55509521484375,0.20513152744472027,0.17035072144269942,-0.008293634962290524
1684099532707091500,4.565091552734375,0.25501462551057336,0.07441548177599906,-0.060477118925005194
1684099532717086200,4.575086181640625,0.3586754909932613,0.11940554710328578,-0.20812223369330166
1684099532727082200,4.585082275390625,0.26511574828624723,0.24945991399288175,-0.4048825308948755
1684099532737077200,4.5950771484375,0.3240501678138971,0.32933366117477414,-0.6003353987596929
1684099532747073300,4.6050732421875,0.33499241758882997,0.3779302265614271,-0.5353159602299332
1684099532757068000,4.615068115234375,0.1840507454931736,0.40390170316398144,-0.20969576662033795
1684099532767064300,4.625064208984375,0.20667466523349284,0.3923042043507099,-0.0997241105556488
1684099532777059300,4.635059326171875,0.30805414178073404,0.21691958039402962,0.0006485270366072655
1684099532787054300,4.645054443359375,0.14976619857549667,0.46992695773541926,-0.08171352982968091
1684099532797050000,4.655050048828125,0.22798574880957603,0.1404582720041275,-0.4603789387978613
1684099532807045000,4.665045166015625,0.22415946851968763,0.22879940328001974,-0.5867842816606164
1684099532817041200,4.675041259765625,0.1301712712675333,0.5334060349553823,-0.5257181108012795
1684099532827036200,4.6850361328125,0.11006079565286636,0.36583354605436325,-0.35007600495219227
1684099532837032200,4.6950322265625,0.06221300280690193,0.14885142181813715,-0.12328925666883588
1684099532847027200,4.705027099609375,-0.09623977557122707,0.05800210711359977,0.0716593149356544
1684099532857023200,4.715023193359375,-0.16667817040979863,-0.11001812555491923,0.31912469411045313
1684099532867018200,4.725018310546875,-0.2490478260606527,-0.43615854364633555,0.44858796323910355
1684099532877013200,4.73501318359375,-0.3004606179118156,-0.38069267701208587,0.4174427372604608
1684099532887009000,4.745009033203125,-0.1893780779957771,-0.2988707183718681,0.17540435157045722
1684099532897004000,4.755004150390625,0.023595395120978354,-0.24336861138045787,-0.03853767431750894
1684099532907000300,4.765000244140625,0.11108838513493537,0.23860651154518125,-0.19989494196549057
1684099532916995300,4.774995361328125,0.08687456585466861,0.2840051576733589,-0.37233021459728477
1684099532926991000,4.7849912109375,0.023947861820459364,0.14208207381367682,-0.39226533364504573
1684099532936986000,4.794986083984375,-0.012075053197145462,0.06226093360185623,-0.22058321746811269
1684099532946982100,4.804982177734375,-0.026875731965899465,0.08316168281137942,0.019258388829976318
1684099532956977200,4.81497705078125,0.08093406988978386,-0.1099982518106699,0.19345175717547536
1684099532966972200,4.82497216796875,0.20067805516719817,-0.1938970167249441,0.24698840931281446
1684099532976968200,4.83496826171875,0.49784255414307116,0.017891630521416662,0.10547229881882667
1684099532986963200,4.844963134765625,0.6568015284776687,0.30674305918216704,-0.18228855812624095
1684099532996959200,4.854959228515625,0.6031991176277399,0.34652561899423595,-0.2619121299393475
1684099533006954200,4.864954345703125,0.6586240677297115,0.2211328141748905,-0.1533930107705295
1684099533016950000,4.874949951171875,0.6368956355243921,0.10640870288610457,-0.012817542127519845
1684099533026945000,4.884945068359375,0.46112464259862895,-0.04325929601192474,0.09064356299936771
1684099533036941300,4.89494140625,0.2723509602367878,-0.15231179140508175,0.2629612006008625
1684099533046936300,4.904936279296875,-0.013270400461554527,-0.32498131118416784,0.47442982211261986
1684099533056932000,4.91493212890625,-0.00005728314518928528,-0.3211690594196319,0.5652480110265314
1684099533066927000,4.924927001953125,0.21386194638907907,-0.1658557481110096,0.3696346919029951
1684099533076922000,4.934922119140625,0.3837210849225521,-0.23554712397456168,0.1435213128365576
1684099533086918100,4.944918212890625,0.4073533049225807,-0.2293067682802677,0.35132863536179065
1684099533096913400,4.954913330078125,0.5626666162312031,-0.13840250851809976,0.1063217552550137
1684099533106909200,4.9649091796875,0.6486918717801571,0.11581366009116172,0.18909999170675873
1684099533116904200,4.974904296875,0.6601964316129684,0.29943595103919507,0.399135511675477
1684099533126900200,4.984900146484375,0.6134305887848138,0.2952560350060463,0.3735625328712165
1684099533136895200,4.994895263671875,0.473353425052762,0.3698550566554069,0.19888620331436394
1684099533146891000,5.00489111328125,0.2455664136856794,0.37252924430072304,-0.12441928361207245
1684099533156886000,5.014885986328125,0.33674890586733813,0.13732581919729708,-0.4297007458090782
1684099533166882300,5.02488232421875,0.4191296674340963,-0.0914326675504446,-0.5249984182246029
1684099533176877300,5.034877197265625,0.2893196306943893,-0.07080021388828754,-0.5128470849208533
1684099533186872300,5.044872314453125,0.28205285456180573,-0.07470423558950423,-0.5071317760139703
1684099533196868000,5.0548681640625,0.5494575905680656,-0.19987316852509973,-0.5648040666513144
1684099533206863000,5.064863037109375,0.9412129288643598,-0.29298341389894483,-0.7670632535301148
1684099533216859100,5.074859130859375,0.9689204354792833,-0.2580897951722145,-0.7914430770270526
1684099533226854400,5.0848544921875,0.8188958782285451,-0.15907412514686584,-0.6803115834027529
1684099533236850200,5.09485009765625,1.112541555428505,-0.4579512732595205,-0.48508068772554397
1684099533246845200,5.10484521484375,1.9356904149264096,-0.6107482178330421,-0.20130013258829713
1684099533256841200,5.11484130859375,2.8609067332357165,0.13046528577804564,-0.013679565784335136
1684099533266836200,5.124836181640625,2.079787335693836,1.6838602646708487,0.13075403959155082
1684099533276831200,5.134831298828125,-0.03208557556867599,2.6809043863505124,0.20750760892629622
1684099533286827300,5.1448271484375,-1.0521481692641972,2.0164841995626688,0.09521087091490625
1684099533296822300,5.154822265625,-0.7175017886340618,0.4420476016849279,-0.1474327871918678
1684099533306818300,5.164818359375,-0.5382131429761647,-0.2768459335684776,-0.6951759750574826
1684099533316813300,5.174813232421875,-0.5225076243221759,-0.16627660387158394,-1.021362131986767
1684099533326809000,5.18480908203125,-1.2822253373950718,0.4851689505308866,-1.2330121014147997
1684099533336804000,5.19480419921875,-3.0904075627833603,0.8521335464417934,-0.7705749149128794
1684099533346800400,5.20480029296875,-3.591470248016715,0.5674649564236403,-0.10070128502473234
1684099533356795400,5.21479541015625,-2.546705174741149,-0.06568506283164025,-0.2724443376086652
1684099533366791200,5.224791259765625,-1.599967929497361,-0.7102905420809984,-1.1062861482955515
1684099533376786200,5.2347861328125,-1.5327917513251303,-1.1378788257807493,-1.662523316001147
1684099533386781200,5.24478125,-1.573660352808237,-1.2400655270576477,-1.648244615279883
1684099533396777200,5.254777099609375,-0.5248077179580927,-1.1294278082996607,-1.4403360243372618
1684099533406772200,5.264772216796875,1.830098873642087,-0.5803145011246204,-0.8211518404617905
1684099533416768300,5.274768310546875,3.3407968665808436,0.5356722263216972,0.07385244106575846
1684099533426763300,5.28476318359375,2.2382956436514854,1.6547399686485529,1.011364177324623
1684099533436759300,5.29475927734375,0.13124445345699787,1.7997236091226338,2.1400714162647723
1684099533446754300,5.30475439453125,-0.5978636018186807,1.1576923642754553,3.3528736733436584
1684099533456750000,5.31475,-1.2595377047687768,0.19013737193048,3.446290208187699
1684099533466745000,5.3247451171875,-2.023348824635148,-0.5777952117800712,2.228036992226541
1684099533476741400,5.334741455078125,-2.075406344130635,-1.0981161397129298,0.6445102021813393
1684099533486736400,5.344736328125,-0.7040519399523735,-1.5443267062962054,-0.77963310450688
1684099533496731400,5.3547314453125,1.6259043347865343,-1.649941043934226,-1.6956093007840216
1684099533506727400,5.3647275390625,3.7459886095553636,-1.3238245912402868,-1.967888072567433
1684099533516722400,5.374722412109375,4.616920379969478,-0.49667584845125673,-1.477476399077475
1684099533526718700,5.38471875,2.1641525490760802,0.6336100379824638,0.5956267826773226
1684099533536713700,5.394713623046875,-2.2997996214061973,1.2360989615142344,2.1140838653102514
1684099533546709500,5.40470947265625,-4.93463666858673,0.5738052653610706,1.5077277449563145
1684099533556704500,5.41470458984375,-5.292045500645041,-0.3654652972638607,0.38913361149057746
1684099533566700500,5.424700439453125,-4.06000662817657,-0.801637284913659,-0.585257510484755
1684099533576695600,5.434695556640625,-1.470378257510066,-0.8746516677200794,-1.4096823812678456
1684099533586690300,5.444690185546875,1.4714397492617368,-0.6391892994195223,-2.052058201768994
1684099533596686600,5.4546865234375,4.536137701249122,-0.6843149738252162,-2.4494090219847857
1684099533606681600,5.464681640625,5.668453047683835,-0.937051717531681,-1.9040446920797227
1684099533616677600,5.474677734375,2.9528105254292485,-0.605992547738552,0.5230398315027356
1684099533626672400,5.48467236328125,-1.4168401440680025,0.2588344760596752,2.720676424768567
1684099533636668400,5.49466845703125,-4.327525345951319,0.5105331088900565,2.744792921154201
1684099533646663400,5.504663330078125,-4.443284060984849,0.27937457526326176,1.427182674384117
1684099533656659700,5.51465966796875,-2.915018847173452,0.31928163823783395,-0.2773796751189977
1684099533666654500,5.524654541015625,-0.8556371706485748,0.5227548770815134,-1.6833774495899676
1684099533676650500,5.534650390625,1.1948527588903903,0.7435340555131434,-2.5661703381896017
1684099533686645500,5.5446455078125,2.4743828658521174,0.676570058786869,-2.8293273536235093
1684099533696640500,5.554640625,3.063099284619093,0.026545477098226546,-2.220614148749411
1684099533706636500,5.564636474609375,2.295167869952321,-0.5797761564642191,-0.192797311854735
1684099533716631300,5.57463134765625,-0.243549228644371,-0.2908709517896175,1.754346005782485
1684099533726627600,5.584627685546875,-2.5001345622241495,0.24533903467059134,2.3805903373025354
1684099533736622600,5.59462255859375,-3.080702745848894,0.546653639063239,2.077601808348298
1684099533746618600,5.60461865234375,-2.4972084456443784,0.5927227317988872,1.2639581515595315
1684099533756613400,5.61461328125,-1.0641010573863983,0.3796066353410482,-0.00949762219088152
1684099533766609400,5.624609375,1.2685551239609718,0.11173428182303904,-1.7138390772186218
1684099533776604400,5.6346044921875,3.110876934838295,0.05567804808020591,-3.0416371021345254
1684099533786600700,5.6446005859375,2.3213959516644476,-0.14980010084509848,-3.2969992259085177
1684099533796595500,5.654595458984375,-0.6508160243272781,-0.5570861857503652,-2.14854230749011
1684099533806590500,5.664590576171875,-3.2940660950660705,-0.5465379037290812,-0.3601569982552901
1684099533816586500,5.67458642578125,-4.462172301328182,-0.23894261163175104,0.6880605170290917
1684099533826581500,5.68458154296875,-4.263952745229005,-0.2186012498706579,0.7928939334224909
1684099533836577500,5.69457763671875,-2.3830957442522047,-0.6676023239552974,0.4975680480506271
1684099533846572300,5.704572265625,1.0217401715189218,-1.6251444563299418,0.22801740432316436
1684099533856568600,5.714568603515625,4.460560189956427,-2.048177560943365,0.08374777560364455
1684099533866563600,5.7245634765625,5.0469204009860755,-0.9680231943786144,-0.0805493540216703
1684099533876559600,5.7345595703125,1.294692604780197,0.6667886694848537,0.02782636092135217
1684099533886554400,5.744554443359375,-3.6522879970729347,1.3343611828237771,0.5106761706225573
1684099533896550400,5.75455029296875,-6.3620058054536575,1.317472007343173,0.5675242853954434
1684099533906545400,5.76454541015625,-5.764469535893202,0.8693313494801521,-0.01727880498585291
1684099533916540700,5.774540771484375,-3.1124843700349327,-0.000012274959683418274,-0.556048476733081
1684099533926536400,5.784536376953125,0.4648217435508966,-1.4277917461931704,-0.7710431900117546
1684099533936531500,5.794531494140625,5.282030887109041,-2.823718281570077,-0.535776819207333
1684099533946527500,5.804527587890625,9.076412648433447,-2.544447751203179,0.2985976187852211
1684099533956522500,5.8145224609375,8.007220405387878,-0.4974702136993408,1.3110969193533062
1684099533966518500,5.8245185546875,2.852313676935434,1.6066799943566321,1.8075199620872735
1684099533976513500,5.834513427734375,-2.235360174721479,2.3753414768636225,1.8288078109182417
1684099533986509600,5.844509521484375,-5.32791293283999,2.009379335993528,1.3382745568752288
1684099533996504600,5.854504638671875,-5.596227769428491,0.9938345119833946,0.11105119492970407
1684099534006500600,5.86450048828125,-3.892731660917401,-0.2019488057553768,-0.7114323325272649
1684099534016495400,5.874495361328125,-1.808485007727146,-1.4534639475882052,-0.9607929508641362
1684099534026490400,5.884490478515625,0.3486801666796207,-2.542083360159397,-0.9711999977838247
1684099534036486700,5.894486572265625,2.351475448107719,-2.9294086070537566,-0.6265922681748867
1684099534046481700,5.904481689453125,3.2311423136413095,-2.053584388422966,-0.10021616838891059
1684099534056477400,5.9144775390625,2.42519768692255,-0.3202162887394428,0.13565197683409788
1684099534066472400,5.924472412109375,0.577581276768446,1.0831816054314374,-0.08576086899172514
1684099534076468500,5.934468505859375,-0.9321972632378339,1.316466629692912,-0.148848417010298
1684099534086463500,5.94446337890625,-1.5272820479929445,0.6315034210920334,0.18847628858415408
1684099534096459500,5.95445947265625,-1.3816583560496567,-0.22658172723054884,0.45403607257716355
1684099534106454500,5.96445458984375,-0.9331716612279415,-0.9633014265537262,0.5250414536487311
1684099534116450600,5.974450439453125,-0.383228917491436,-1.4169091176509856,0.34710440526288
1684099534126445600,5.984445556640625,0.23472470167577264,-1.4814783281952142,0.19200683733047916
1684099534136440600,5.994440673828125,0.8411690848350525,-1.3072142327010632,0.302226184545923
1684099534146436400,6.004436279296875,1.2717355075627566,-0.9752975692957639,0.5618967278372496
1684099534156431400,6.014431396484375,1.3875053285121917,-0.5681804112166166,0.6827703747317194
1684099534166427600,6.024427734375,1.0176619622945784,-0.17028993116617203,0.3904700842587277
1684099534176422700,6.034422607421875,0.5010942494153976,0.03755143975913525,-0.12770953906280919
1684099534186418400,6.04441845703125,0.24024141927063464,0.16629297048449515,-0.46338159121256317
1684099534196413400,6.054413330078125,0.20935528261959552,0.2780681688398123,-0.5803449327955023
1684099534206409500,6.064409423828125,0.08679390183389186,0.3559837676912546,-0.5041113322142511
1684099534216404500,6.074404541015625,-0.20647300518155096,0.34424656814634796,-0.32939496290795506
1684099534226400500,6.084400390625,-0.46388884661495683,0.22025544681847095,-0.22553053767718373
1684099534236395500,6.0943955078125,-0.59806993804574,0.12045593293905257,-0.2468862458462827
1684099534246390500,6.104390625,-0.7770049479603767,-0.15236732098460196,-0.33136458248049017
1684099534256386600,6.114386474609375,-0.7830255234241486,-0.6156757373631,-0.4998609812933951
1684099534266381600,6.124381591796875,-0.44593174964189525,-1.117878824803233,-0.7614107076611369
1684099534276377300,6.13437744140625,0.1413508369296789,-1.4248866724014282,-0.9728503953393548
1684099534286372400,6.144372314453125,0.7958528562933206,-1.2685130383849144,-0.9048007953334599
1684099534296368600,6.15436865234375,1.4424433718800544,-0.8312515019327401,-0.5697437880758196
1684099534306363600,6.16436376953125,1.7551964851319788,-0.3684013507157564,-0.062082901020674035
1684099534316359400,6.174359375,1.4751193145573138,-0.004337152421474456,0.40814021751657126
1684099534326354400,6.1843544921875,0.7149819147676229,0.326530878713727,0.632971374752745
1684099534336350500,6.1943505859375,-0.27449907818138597,0.4528922363042831,0.393550514617376
1684099534346345500,6.204345458984375,-0.8853776443958282,0.24034604868888854,-0.32209943560492243
1684099534356341500,6.214341552734375,-0.7719663692712784,-0.22669804708659647,-1.1365274111717938
1684099534366336500,6.22433642578125,-0.04790215338170528,-0.7535135977357625,-1.383123021774739
1684099534376331500,6.23433154296875,0.8318903843581676,-0.9498562540471553,-1.0272001174252479
1684099534386327600,6.24432763671875,1.489882583925128,-0.8447364219278096,-0.40297837777398526
1684099534396322600,6.254322509765625,1.5799182441592217,-0.6869172652781009,0.32267003856711085
1684099534406318300,6.264318359375,1.174558158880472,-0.396336236345768,1.0553031261637806
1684099534416313300,6.274313232421875,0.43697453620433807,-0.07245557987987995,1.632750839680433
1684099534426309600,6.2843095703125,-0.5440180298626422,0.07601940984129905,1.6706464167021213
1684099534436304600,6.2943046875,-1.3037573702454566,-0.01568447586596012,1.062117920745164
1684099534446300400,6.304300537109375,-1.2516869912683963,0.13951602271795271,0.28150687458422036
1684099534456295400,6.31429541015625,-0.7127952183783054,0.7278869890481233,-0.11743815602045506
1684099534466291500,6.32429150390625,-0.12858721694648265,1.2122253339737652,-0.20046390095986424
1684099534476286500,6.334286376953125,0.17056348741054533,1.369207455277443,-0.29437934350306166
1684099534486281500,6.344281494140625,0.10172492898404598,1.361089030751586,-0.7570499551683664
1684099534496277500,6.354277587890625,-0.41921325406432147,1.1863690081834792,-1.2658239454314113
1684099534506272000,6.36427197265625,-1.0074562101006508,0.8886509669780731,-1.3691820285752414
1684099534516268000,6.37426806640625,-1.4415847092241048,0.8446627721697092,-0.9565082592822611
1684099534526263000,6.384262939453125,-1.7482734078705309,1.1252975766271351,-0.17878624909371135
1684099534536259000,6.394259033203125,-1.6352753897219896,1.4854484008699655,0.3506376574229449
1684099534546254000,6.404254150390625,-1.4393267011642454,1.7891893556267022,0.6456555728241801
1684099534556250000,6.41425,-1.3807505935549735,2.018311414989829,0.5516334002371878
1684099534566245000,6.4242451171875,-1.0551081881135702,2.119547099152207,-0.05878920237068087
1684099534576241000,6.434240966796875,-0.721883949241042,1.9225532854557037,-0.5311911353848874
1684099534586236000,6.44423583984375,-0.5505705202460288,1.6579554235637186,-0.7366752756595611
1684099534596232200,6.454232177734375,-0.4491688318669796,1.485050341463089,-0.7525958253037184
1684099534606227200,6.464227294921875,-0.4629249700188636,1.3741560175955294,-0.6058652315644547
1684099534616222200,6.47422216796875,-0.4614075511932373,1.2733622319817541,-0.4765054593428969
1684099534626218000,6.484218017578125,-0.4045931925594806,1.035802014619112,-0.3296868950592354
1684099534636213000,6.494212890625,-0.3837432967543602,0.7053513321131467,0.02319355458812788
1684099534646209000,6.504208984375,-0.22064415387511252,0.47428690651059147,0.3932118572475388
1684099534656204000,6.5142041015625,0.2805950569689274,0.38531799872517586,0.7544380191043019
1684099534666200000,6.524199951171875,0.9710539403766393,0.5238245521396399,1.3791852439343928
1684099534676195000,6.534195068359375,1.3797282647699116,0.7844692924916744,1.5920562795899806
1684099534686191000,6.544191162109375,1.2993249407559633,0.8998521599501371,1.5380046636678277
1684099534696186000,6.55418603515625,0.6777502084821462,0.9880816475450992,1.1621925252389163
1684099534706182000,6.564181884765625,-0.21343524540960787,0.9733259769618511,0.6116538249032571
1684099534716177000,6.574177001953125,-0.5750047042787074,0.10792027649283409,-0.1814423165604472
1684099534726173200,6.584173095703125,0.6588584610074758,-1.6329782186955213,-1.347072341967374
1684099534736168200,6.594168212890625,2.9702240170449015,-3.734773388057947,-2.1616754914380607
1684099534746163200,6.6041630859375,5.481303167131543,-5.495898094195127,-2.3512644357055423
1684099534756159000,6.614158935546875,6.9412102995097635,-5.978637771752476,-1.781850975562632
1684099534766154000,6.624154052734375,5.515059890782833,-3.9641532215744255,-0.37607805935610084
1684099534776150000,6.63414990234375,1.7935136485666034,-0.23908523497283457,0.6388432624608278
1684099534786145300,6.644145263671875,-2.034300426760316,2.461310033789277,1.1377223200447857
1684099534796141000,6.65414111328125,-4.173967938399315,3.5917560792207714,1.3700079580053686
1684099534806136000,6.664135986328125,-4.011670175030828,3.2156834632247686,1.041043568534404
1684099534816132000,6.674132080078125,-2.469805474933982,2.2721458908051253,0.2867164624586701
1684099534826127000,6.684127197265625,-0.7510726343244314,1.7197317885190246,-0.41647820307724176
1684099534836123000,6.694122802734375,0.24126024092435835,1.3835352558374403,-1.3779742607094347
1684099534846118100,6.7041181640625,0.094486794424057,0.5215227049380541,-2.208841877891123
1684099534856114200,6.7141142578125,-0.21740122643113136,-0.8099486016631126,-2.5125275953292845
1684099534866109200,6.724109130859375,-0.0998854385972023,-2.126249811661243,-2.2679858485162256
1684099534876104200,6.734104248046875,0.496859972846508,-2.604818341013789,-1.6876432903409002
1684099534886100000,6.744099853515625,0.8602052092164755,-1.6088637681365012,-1.078270890905708
1684099534896095000,6.754094970703125,0.8103221111506224,0.11764964334666728,-0.48766606457624584
1684099534906091300,6.76409130859375,0.9470534715861082,1.496255041566491,0.2384907396784052
1684099534916086300,6.774086181640625,0.8667804959535598,2.1849843247026204,1.0597015072531997
1684099534926082000,6.78408203125,0.5574129334867001,2.2347066792488097,1.4851540940985082
1684099534936077000,6.7940771484375,-0.004036708170175552,1.7153490433901548,1.4145599241763354
1684099534946073000,6.804072998046875,-0.6920540436446666,0.7104156297653913,1.1812898052230476
1684099534956068000,6.814068115234375,-1.0932605163753033,-0.43946576849818225,0.8842452062997966
1684099534966063900,6.82406396484375,-1.0840256550401448,-1.2839420781850814,0.3161664288267493
1684099534976059100,6.83405908203125,-0.8804705831319093,-1.7348469400644302,-0.4594081210043281
1684099534986054100,6.84405419921875,-0.5695645590513945,-1.5434966852128504,-1.209867445736006
1684099534996050200,6.85405029296875,-0.1788742196381092,-0.6105903969228267,-1.1529825791493058
1684099535006045200,6.864045166015625,-0.5725771848708391,0.25956922007501126,-0.1496949599701911
1684099535016041000,6.874041015625,-1.6118419071644543,0.4515115956008434,1.076138481986895
1684099535026036000,6.884035888671875,-1.6140946545273065,0.13526304144859314,2.0148943000227213
1684099535036032300,6.8940322265625,-0.36754151901602744,-0.3239455383956432,2.3790604973867535
1684099535046027300,6.90402734375,0.892532192325592,-0.6308470030099154,2.0754640656672416
1684099535056023000,6.91402294921875,1.2772446263730526,-0.7919196084976196,0.6505419566262512
1684099535066018000,6.92401806640625,0.9929466232329607,-0.9852642520368099,-0.7549050520941615
1684099535076014000,6.93401416015625,0.2935644286572933,-1.0539385598123072,-0.8979979103855789
1684099535086009000,6.944009033203125,-0.598810527279973,-0.8620704185664654,-0.19798786623515188
1684099535096005000,6.954005126953125,-1.6388555862963199,-0.5673480520457029,0.8717625952150673
1684099535106000100,6.964000244140625,-1.9995815800786017,-0.22581483451128004,1.0623221380803733
1684099535115996200,6.97399609375,-1.4561422268867492,-0.19013094218969345,0.6297212138503789
1684099535125991200,6.9839912109375,-1.163890634393692,-0.6455243476599455,0.23838439322710037
1684099535135986200,6.993986083984375,-1.435595697942376,-1.1926467732787132,0.020461627139896153
1684099535145982000,7.00398193359375,-1.9728987403362988,-1.6391501853287218,0.05470828973259777
1684099535155977000,7.01397705078125,-2.0401976681053635,-1.8856576792567967,0.08442856094203889
1684099535165973200,7.02397314453125,-1.4926841973423957,-1.7321739214628933,0.05673237943872809
1684099535175968300,7.03396826171875,-1.286708620288968,-1.3583850324898958,-0.17531561384107916
1684099535185964000,7.043964111328125,-1.3378724058151243,-1.1854022089779377,-0.5784061832852662
1684099535195959000,7.053958984375,-0.5322568649202585,-1.1116975058197975,-0.8627141232974826
1684099535205955000,7.063955078125,-0.2628197463035583,-0.9074217184215784,-0.9562934474878012
1684099535215950000,7.0739501953125,-1.0659025538504123,-0.8243056283175945,-0.5468997958440334
1684099535225946000,7.083946044921875,-0.898302592420578,-1.0694909337311982,0.4171609977096319
1684099535235941000,7.093941162109375,-0.35968496029675007,-1.3187246377527713,1.3740690699644387
1684099535245937200,7.103937255859375,-0.39524551849961276,-0.8701327289909124,2.0882573501363395
1684099535255932200,7.11393212890625,-0.29994682317078114,-0.06137655198276042,2.211970677436143
1684099535265927200,7.12392724609375,-0.08710837461054324,0.40645898643136025,1.4955480623409152
1684099535275923000,7.1339228515625,-0.007220598903298378,0.5467442399561405,0.4520671105917543
1684099535285918000,7.14391796875,-0.5640665461570025,0.568877161309123,-0.4908142264088616
1684099535295914200,7.153914306640625,-0.9768073893368243,0.6125953070044518,-0.9155945765484124
1684099535305909200,7.1639091796875,-0.2913771477460861,0.26897593084573745,-0.9277756474032998
1684099535315905000,7.173905029296875,1.0348848997741937,-0.4476613499134779,-0.7196255027897656
1684099535325900000,7.183900146484375,1.3540648312032222,-0.5675707548856734,-0.684186305944249
1684099535335896000,7.19389599609375,0.5389022942841053,-0.1316658937394619,-0.8711810690000653
1684099535345891000,7.20389111328125,1.1782593514859676,0.25334347742795943,-0.8359624561026692
1684099535355887000,7.21388720703125,1.265361880877614,0.6439806253492831,-0.824512695197016
1684099535365882000,7.223882080078125,0.6481400831162929,0.8137105845451355,-0.5361180703930557
1684099535375878100,7.233878173828125,0.5041793559491634,0.6471329519003629,-0.15956614644750952
1684099535385873200,7.243873046875,0.5034557178497314,0.12574994769394396,-0.015312464215792715
1684099535395868200,7.2538681640625,0.8064636821568012,-0.3165519210129976,-0.20487821027077732
1684099535405864000,7.263864013671875,0.9679957218497991,-0.47933892920315263,-0.9449650479394942
1684099535415859000,7.27385888671875,0.8106114494860172,-0.22829379184544085,-1.3962461227200924
1684099535425855200,7.283855224609375,0.44758653111159796,-0.11579904704391955,-1.0574593543495983
1684099535435850200,7.293850341796875,0.6955985843837261,-0.47738253443837164,-0.48477147564589973
1684099535445846000,7.303845947265625,1.4166419911473989,-0.6584066255867481,0.004054901413992047
1684099535455841000,7.313841064453125,1.0494026699483394,0.4205599924981594,0.5770690163973718
1684099535465837000,7.323837158203125,0.27772330092489717,1.6858938163250683,0.9376957145236432
1684099535475832000,7.33383203125,-0.24648995827138423,2.19242587288022,0.9800525087378918
1684099535485828000,7.343828125,-0.37159108666777607,1.9413456642091274,0.03581555587723851
1684099535495823000,7.353822998046875,-0.5381704728782176,0.9887088395327329,-0.5799394572671502
1684099535505819600,7.363819580078125,-0.4295131142824888,-0.025975568255782126,-0.9501249879859387
1684099535515814700,7.373814697265625,-0.7155079844683409,-0.3596469663739204,-1.1271175585959106
1684099535525810400,7.383810546875,-0.6515349862515926,-0.3896662570625543,-0.7252762950930745
1684099535535805400,7.393805419921875,0.23197277261912821,-0.5949217031478882,-0.4423587134607136
1684099535545800400,7.403800537109375,0.6005839666932821,-0.1683691922366619,-0.37246640819758176
1684099535555796500,7.41379638671875,0.26255554240942,0.28037001604139805,-0.2982742868486792
1684099535565791500,7.42379150390625,0.3542752102077007,0.19278700965642928,-0.13369944539368153
1684099535575787500,7.43378759765625,0.1923375123232603,0.1160673425912857,0.17466675801090895
1684099535585782500,7.443782470703125,-0.09846797301471233,-0.5675304228752851,0.7287402448765933
1684099535595778600,7.453778564453125,0.22712124093472957,-0.8949018440663814,1.5641541271857917
1684099535605773600,7.463773681640625,0.35688860757648944,-0.5536702398270368,1.6300120623663066
1684099535615769300,7.473769287109375,-0.32761165968775746,-0.2388268762975931,1.1813447502806782
1684099535625764400,7.483764404296875,-0.15293021556437014,0.05674713861644268,0.5130469914071262
1684099535635760600,7.4937607421875,-0.203485221542418,1.128656823927164,-0.6100923842728138
1684099535645755600,7.503755615234375,-0.9759358671993017,1.7386042467713354,-1.4254875609040258
1684099535655751400,7.51375146484375,-0.8925617106810212,0.9926555313318968,-1.503534384919703
1684099535665746400,7.523746337890625,0.014671207170188426,-0.19714871199727058,-1.3354291043162345
1684099535675741400,7.533741455078125,0.12867840236127376,-0.20892273642122744,-0.7084433798443526
1684099535685737500,7.543737548828125,-0.1822773060798645,-0.7430909879207611,-0.10069712030626833
1684099535695732500,7.553732421875,0.15177169317901135,-1.3047732692897318,0.4913100836344063
1684099535705728500,7.563728515625,0.027579496321082114,-0.6569897445261478,0.973240709831193
1684099535715723500,7.5737236328125,-0.04624970999956131,-0.8596393920272588,1.0192197861958294
1684099535725719600,7.583719482421875,0.07220189737975596,-0.6091659170776605,0.8460974811479449
1684099535735714600,7.593714599609375,-0.10187748919725417,-0.17028993116617203,0.16210414049252866
1684099535745710300,7.60371044921875,0.015304244376718998,-0.36517829701602456,-0.6677054190035909
1684099535755705300,7.613705322265625,0.12822189076542853,0.07395955470204353,-0.579276024922356
1684099535765701600,7.62370166015625,0.0019517185896635054,-0.2929156093597412,-0.6902729323815554
1684099535775696600,7.633696533203125,0.40837095753252506,-0.6302537132918834,0.11123699982538819
1684099535785692400,7.6436923828125,0.7747577535554766,-0.6186831024855375,0.7786603870172053
1684099535795687400,7.6536875,0.6150356858938932,-0.5206482601910829,1.6699169333837924
1684099535805683500,7.663683349609375,0.5849249175295234,-0.8897492836087941,1.9181642567165196
1684099535815678500,7.673678466796875,0.29855799916088577,-0.504146622723341,0.6973063381496817
1684099535825673500,7.683673583984375,0.2459194649070501,-0.6838847657144069,-0.4363098617505282
1684099535835669500,7.69366943359375,0.32999533995389935,-0.047967035311460494,-0.7768891395609825
1684099535845664500,7.70366455078125,0.021200608938932417,-0.5597860923588276,-0.2821917515758425
1684099535855660500,7.71366064453125,0.3006502952650189,-1.2154787828117608,0.7277506493173539
1684099535865655300,7.7236552734375,-0.3722846218898892,-1.753454609900713,1.4724588631764053
1684099535875651300,7.7336513671875,-0.2742193844571709,-2.627453951191902,1.8490809297487139
1684099535885646600,7.743646484375,-0.5751145943939685,-1.951477182123065,3.8609380540326237
1684099535895642600,7.753642578125,-2.2474209071323275,-0.3716331722438335,3.2936379327818748
1684099535905637400,7.763637451171875,-3.3627485861480233,1.224503216266632,-0.4142829580552876
1684099535915633400,7.77363330078125,-2.912456303209066,2.424893735539913,-2.747058820259571
1684099535925628400,7.78362841796875,-2.357369766843319,2.8253169489383696,-2.3570424345850944
1684099535935624400,7.79362451171875,-2.2847399994403124,2.8428111045747992,-1.4831991606384516
1684099535945619500,7.803619384765625,-1.9069076802954077,1.6589087787657975,-0.7130494854003191
1684099535955615500,7.813615478515625,-0.9564113747790455,-0.014193360525369644,-0.030699820298701525
1684099535965610500,7.823610595703125,-0.5134630248621106,-0.8865092787742614,1.1224391184560953
1684099535975606500,7.8336064453125,-0.35724721175581214,-1.3424731776088474,1.9788630555681883
1684099535985601500,7.8436015625,0.6619196021437644,-1.3002122449845075,1.7838466794244945
1684099535995596300,7.85359619140625,1.3884788497194647,-0.5683318023860454,0.2017407159626484
1684099536005592600,7.863592529296875,0.540131836079061,0.2561936061620712,-1.959959909916669
1684099536015587600,7.873587646484375,-0.17993512686789034,0.8258890981167555,-2.960943270741403
1684099536025583600,7.88358349609375,-0.995775124657154,1.187999239733815,-1.8716827837876975
1684099536035578400,7.893578369140625,-1.9558172571539878,1.1453776571035383,-0.33331483976542947
1684099536045574400,7.903574462890625,-1.4458350601449608,0.8929711682647467,0.7559821798063814
1684099536055569400,7.9135693359375,-1.236162966661155,1.3852864834189413,1.0235352382421492
1684099536065565700,7.923565673828125,-1.713063855062425,1.234236674773693,0.6872223857045173
1684099536075560400,7.933560546875,-0.9843868846803903,1.2380372361004353,-0.14962006810307502
1684099536085556500,7.943556396484375,0.08378653671145439,1.1872954753786324,-0.6991865258730947
1684099536095551500,7.953551513671875,0.8178951767534017,0.5324690463662147,-1.3415560627639294
1684099536105547500,7.963547607421875,1.5548722118385134,0.2291460247606039,-1.094242586215213
1684099536115542500,7.97354248046875,2.4821277808904645,-0.2061795751929283,-0.8992489333599806
1684099536125538600,7.98353857421875,3.0605209585636852,-0.4551759633272886,-0.7010304001741111
1684099536135533600,7.993533447265625,3.7857743842378255,-0.7348147424846887,-0.927544907387346
1684099536145529600,8.003529541015626,3.5533994605585932,0.08454816873371601,-0.8625890356130897
1684099536155524600,8.013524658203124,2.250913425423205,0.7476543503135442,-0.3671750968564301
1684099536165519400,8.023519287109375,1.2115978497251867,1.1979396189898253,0.34648894024565813
1684099536175515400,8.033515380859376,0.21965748092532156,1.9934324097990987,0.5382224953263998
1684099536185510400,8.043510498046874,-0.28553543598055836,1.512656141269207,-0.11621215788945555
1684099536195506700,8.053506591796875,0.42483869273066516,0.6001742168486118,-0.9220134306147694
1684099536205501400,8.06350146484375,2.054390151847899,-0.27495032908022404,-1.499420227599144
1684099536215497500,8.07349755859375,3.060307315813005,-0.31366262931227684,-1.6183990737229585
1684099536225492500,8.083492431640625,3.4631972115859386,-0.2693471022456884,-1.318453857987374
1684099536235488500,8.093488525390624,3.441795819377899,0.3391039445608854,-1.3287272685900329
1684099536245483500,8.1034833984375,2.9598388166308403,1.2241595173954962,-1.489551013883203
1684099536255479600,8.1134794921875,2.83466900691241,1.3100018175929784,-2.0370912265226244
1684099536265474600,8.123474609375,3.486045003210008,1.0676204636842013,-2.614896082913875
1684099536275470600,8.133470703125,4.252770841479301,0.946684638273716,-2.7632933312237262
1684099536285465600,8.143465576171875,3.9813972018420696,1.1155746395140886,-2.1377865201979875
1684099536295461400,8.15346142578125,3.3563547934576867,0.7248088967770338,-1.5250677329443394
1684099536305456400,8.163456298828125,2.8812977793574333,0.12775427325367927,-0.9790273304086178
1684099536315451400,8.173451416015626,2.126580651050806,0.19899346308112142,-0.2880873854856938
1684099536325447700,8.18344775390625,1.0773968845501543,0.2886100211203098,0.36249943319559097
1684099536335442400,8.1934423828125,0.29876433538794517,0.10882979255318641,0.6056497256502509
1684099536345438500,8.2034384765625,-0.4620037635207176,0.02418108605444431,0.42375213960297403
1684099536355433500,8.21343359375,-1.3041200660780072,-0.10747896246612071,0.214437225526385
1684099536365429500,8.223429443359375,-1.6394444921001792,-0.506015339204669,0.10905943659059703
1684099536375424500,8.233424560546876,-1.471831086666882,-0.6272060161590576,0.06182093474939465
1684099536385420500,8.243420654296875,-1.521973420190811,-0.6081143621981143,0.3909884090444073
1684099536395415600,8.25341552734375,-1.182055528898537,-1.0144114360660315,0.7416469265922904
1684099536405411600,8.26341162109375,-0.4473509687900543,-0.3015776392430067,1.196468012067303
1684099536415406600,8.273406494140625,-0.5016390238165855,-0.004939209967851638,1.2471297663554548
1684099536425402400,8.28340234375,-0.798560069425404,-0.5081716404557228,0.8985081979952753
1684099536435397400,8.2933974609375,-1.2168471485555172,-0.7707388733029366,0.7079401795625686
1684099536445393700,8.3033935546875,-1.923440589684248,-0.9202075502365827,0.8635581729061901
1684099536455388700,8.313388671875,-1.9082769228219985,-0.892427562907338,1.5639903149262069
1684099536465384400,8.323384521484375,-0.9787827810630202,-0.6104261462718248,1.5426919447012244
1684099536475379500,8.33337939453125,-0.14343904138058422,-0.33815234292447566,1.2008901393584905
1684099536485374500,8.34337451171875,0.269456115578115,-0.47584231925904746,0.6432035034969449
1684099536495370500,8.35337060546875,0.4824886254057288,-0.15776771872341633,0.3036138212457299
1684099536505365200,8.363365234375,0.40854046888053414,0.6903770503431558,0.2722795755010098
1684099536515361300,8.373361328125,0.5086135390043258,0.681568305465579,0.31856413761824365
1684099536525356300,8.383356201171875,0.7319298346981405,0.2076215906947851,0.614485943056643
1684099536535352300,8.393352294921876,0.5737254781231284,-0.041377135527133936,0.9466059470143169
1684099536545347300,8.403347412109374,0.22887889825701713,-0.277199569311738,1.0940008864138275
1684099536555343000,8.413343017578125,0.053691550438106056,-0.5265063385695219,0.885314150705561
1684099536565338400,8.42333837890625,-0.17996055357009172,-0.4965688809454441,0.5557211079422384
1684099536575334400,8.43333447265625,-0.05045505273491144,-0.5468804335564375,0.1373002463646233
1684099536585329400,8.443329345703125,0.4962395028606057,-0.23353461510837076,-0.24482063681967556
1684099536595325200,8.4533251953125,0.8965151244819164,0.7336866152375936,-0.7178945873439312
1684099536605320200,8.4633203125,1.2414406148031354,0.9503408226937055,-1.4532774851053953
1684099536615316200,8.473316162109375,1.3323629947438835,0.9383955333560705,-1.763952330778539
1684099536625311500,8.4833115234375,1.1821648344919085,0.9158481859833002,-1.4163026761904358
1684099536635306200,8.49330615234375,1.2400935841083527,0.25332535724937916,-0.8798945368096232
1684099536645302300,8.50330224609375,0.9699743284463882,-0.5850841997444629,-0.5480806761916727
1684099536655297300,8.51329736328125,0.21866174788624046,-0.7672749965846538,-0.24671346482895312
1684099536665293300,8.523293212890625,-0.0005433130964636803,-0.5820353335678577,0.049077115445211525
1684099536675288300,8.533288330078125,0.12332944254875182,-0.018286767318844793,0.11625066326893865
1684099536685284400,8.543284423828124,0.07521247737258673,0.7046469832360744,0.0706730803772807
1684099536695279400,8.553279296875,0.9174436384811997,0.9651000004082918,-0.1672586006462574
1684099536705275400,8.563275390625,1.2494620086953043,0.9635036711275577,-0.2683784033440053
1684099536715270400,8.5732705078125,0.7981409672304988,0.6727876176387071,0.17873904895111917
1684099536725266200,8.58326611328125,0.9330088718816637,0.4362269327074289,0.4182087531968951
1684099536735261200,8.59326123046875,0.7166831657275557,-0.42962534248530865,0.761253398207575
1684099536745257500,8.603257568359375,0.17536971864849327,-1.287232936424017,0.5982200140409171
1684099536755252500,8.61325244140625,-0.562772999215126,-1.4480682260245084,0.3117635176926851
1684099536765248300,8.623248291015624,-0.9013570115551351,-1.1395020430684089,0.02304360645711422
1684099536775243300,8.6332431640625,-0.7598308180585504,-0.5075917947411537,-0.40193902478888627
1684099536785239300,8.6432392578125,-0.48507191989719867,0.3933136736541986,-0.7968957894749938
1684099536795234300,8.653234375,-0.057093760097026824,1.053213752669096,-0.955272726137936
1684099536805230300,8.663230224609375,0.345078342795372,1.2342419354707002,-0.7279949794672429
1684099536815225300,8.673225341796876,0.474858568918705,0.9759399588525295,-0.29571766116842624
1684099536825220400,8.683220458984374,0.45078883428424593,0.3749216923952102,0.28961949042379853
1684099536835216400,8.69321630859375,0.3232750917881727,-0.37952714036405083,0.7609440399974584
1684099536845211400,8.70321142578125,0.019607202267646787,-0.9482517414599656,0.840862210842967
1684099536855207200,8.713207275390625,-0.32916473434865473,-1.1480407388329505,0.5623897720512002
1684099536865202200,8.7232021484375,-0.6489040532261133,-0.9842869314372539,-0.10266352500841021
1684099536875198500,8.733198486328124,-0.8123188379257917,-0.46962709800601005,-0.8320337383516132
1684099536885193500,8.743193359375,-0.45067222216725344,0.06359364351034164,-1.26101449932307
1684099536895189200,8.753189208984375,0.09591010522544384,0.5362351209014654,-1.1956314881779253
1684099536905184300,8.763184326171874,-0.12095745272040366,0.9493512271344661,-0.7540189899746328
1684099536915180300,8.77318017578125,-0.40930268542468545,1.0714257011860608,-0.25975268688313663
1684099536925175300,8.78317529296875,-0.5606830411985516,0.8977157324433326,-0.028361075152829287
1684099536935171300,8.79317138671875,-0.8777642467826604,0.46343525762856,-0.04167692219130695
1684099536945166300,8.803166259765625,-0.9989262821644544,-0.11683131270110607,-0.22228731797225773
1684099536955162400,8.813162353515626,-0.9915928705364465,-0.4299088356018066,-0.38281156886219975
1684099536965157400,8.823157470703125,-0.2985369563728571,-0.5421504824250937,-0.4683570050049573
1684099536975153200,8.833153076171875,1.084970826935768,-0.5083259542346,-0.51799387322478
1684099536985148200,8.843148193359376,1.4277934997588395,-0.14129706091582775,-0.2665630244851112
1684099536995144400,8.85314453125,0.6101268710643053,0.5105260946273803,0.24579671531021594
1684099537005139500,8.863139404296875,-0.42027474581599233,1.0796306349515914,0.6612360768590122
1684099537015134200,8.87313427734375,-1.2966057449251414,1.208391454899311,0.6649217065691948
1684099537025130200,8.883130126953125,-1.579766268467903,0.9197492850750684,0.21158530669398604
1684099537035125200,8.893125244140625,-1.2638403703987597,0.2264402729332447,-0.5330928042877465
1684099537045121300,8.903121337890624,-0.31897768685519695,-0.4401256937116384,-1.1091674758855252
1684099537055116300,8.9131162109375,1.2092951257407665,-0.9017460108727217,-1.464677123259008
1684099537065112300,8.9231123046875,2.373000466695428,-0.7700415386885404,-1.511920082079619
1684099537075107300,8.933107421875,1.9695102669417857,-0.1062766009390354,-0.999237028614059
1684099537085103400,8.943103271484375,1.020827732849121,0.5827367598354816,-0.45691608499288555
1684099537095098400,8.953098388671876,0.5244792166560888,1.1700848128587007,-0.19568200044557452
1684099537105094100,8.96309423828125,-0.20011282249987125,1.537294323441386,-0.15151538033038378
1684099537115089200,8.973089111328125,-1.0179559768050908,1.5134218649446964,-0.1717087119229138
1684099537125085400,8.98308544921875,-0.9509218374520539,1.0973913325697182,-0.20676248964741825
1684099537135080400,8.99308056640625,-0.033734511819481845,0.48882221234142775,-0.340404834559001
1684099537145076200,9.003076171875,0.7704892824560403,-0.00008417115211486816,-0.5218303095825017
1684099537155071200,9.0130712890625,0.8067986131995916,-0.30360476115643975,-0.5349010592861101
1684099537165067300,9.0230673828125,0.13075403959155082,-0.4337982442557812,-0.34653712676893916
1684099537175062300,9.033062255859376,-0.6166290925651788,-0.4424059136033058,0.07065916144978254
1684099537185057300,9.043057373046874,-0.8335287992149591,-0.4368582163482904,0.5493072588445619
1684099537195053300,9.05305322265625,-0.8080898220539092,-0.2389367664128542,0.8958663051843643
1684099537205048300,9.06304833984375,-1.2274743410319089,0.015933482190966606,0.913885507608205
1684099537215044400,9.07304443359375,-1.154414365518093,-0.2172854910969734,0.3852675837121904
1684099537225039400,9.083039306640625,0.11223404803872108,-0.6191016201585531,-0.28536133978897704
1684099537235035100,9.09303515625,0.7937959237635135,-0.5366226589143276,-0.12195731394533067
1684099537245030100,9.103030029296875,-0.2508341249555349,0.17261808185279368,0.5141438102005049
1684099537255026400,9.1130263671875,-1.59260295368731,0.7835743894785642,0.6238193693954497
1684099537265021400,9.123021484375,-2.125737185963988,0.6663076079696416,0.28514086543871087
1684099537275017200,9.133017333984375,-1.8281056539982556,-0.05156885919570923,-0.10754058385971002
1684099537285012200,9.14301220703125,-0.8677958104759455,-0.9642501055806875,-0.3613501900952309
1684099537295008300,9.15300830078125,0.22079788313210008,-1.8072715402841566,-0.3848249910438433
1684099537305003300,9.163003173828125,0.9354021967589855,-2.259602051052451,-0.20527431518258527
1684099537314999300,9.172999267578126,0.780965668284893,-1.9644956536501645,0.057522036545653826
1684099537324994300,9.182994384765625,-0.296364288508892,-1.0858844346493481,0.16058496810123324
1684099537334990300,9.192990234375,-1.9276742817312478,0.013083937978744506,0.17177237000996246
1684099537344985300,9.2029853515625,-3.469972697070241,1.036381860333681,0.16136223608404396
1684099537354981000,9.212981201171875,-4.638933474335074,1.5625556059479713,0.07102786689801141
1684099537364976000,9.22297607421875,-4.799973931118846,1.265883858925104,-0.20626263210019097
1684099537374972400,9.232972412109374,-2.7666005560755726,-0.00827449187040329,-0.6405556924019008
1684099537384967400,9.242967529296875,1.7841612983316182,-1.6006547427177429,-0.8177722810260951
1684099537394962400,9.25296240234375,6.310178587582707,-2.693712429997325,-0.7974684747964144
1684099537404958200,9.262958251953124,6.3636050573438405,-2.4145699099242686,-0.570864426136203
1684099537414953200,9.272953125,2.7303438323020934,-1.1284990030169486,-0.18567496742783113
1684099537424949200,9.28294921875,-1.4553396783322095,0.5012853880733251,0.3286073927268386
1684099537434944300,9.2929443359375,-4.286177436518669,1.8868617943495511,0.787183519886434
1684099537444940300,9.302940185546875,-4.86225824559629,2.419820670059323,0.9646884239327161
1684099537454935300,9.312935302734376,-3.3538007250607014,1.8457406794101,0.5750983008462935
1684099537464931300,9.322931396484375,-0.9135194507747888,0.5373872135460377,-0.25948857432054356
1684099537474926300,9.33292626953125,1.8918688088566065,-0.8588602243483066,-0.9397932713247835
1684099537484922000,9.342922119140624,4.899223409900069,-1.9872136814147232,-1.250668315745145
1684099537494917000,9.352917236328125,6.2401873519897455,-2.2012346177577973,-1.2363920992419124
1684099537504913400,9.362913330078126,4.479077258899808,-1.0099836827516555,-0.7098438212268054
1684099537514908400,9.372908447265624,0.8803840738922357,0.7425695943951607,0.10580898342728615
1684099537524904200,9.382904296875,-2.2521686861813066,1.6275351508587599,0.540141517222859
1684099537534899200,9.392899169921876,-3.605228139734268,1.477394273751974,0.6987529567614197
1684099537544895500,9.4028955078125,-3.08587576457262,0.7701110967934132,0.610873634310998
1684099537554890500,9.412890380859375,-1.495095350137353,0.0010427870512008666,0.33550204761140046
1684099537564886300,9.42288623046875,-0.23808511801958082,-0.5178109909385442,0.06466317243799567
1684099537574881300,9.43288134765625,0.5539391198962926,-0.7442226222991943,-0.1742228867009282
1684099537584877300,9.442877197265625,1.2921452583849429,-1.0345669198662042,-0.365574237531051
1684099537594872300,9.452872314453124,1.976874658229947,-1.320689215824008,-0.4742646581461653
1684099537604867600,9.46286767578125,2.0793255634009835,-1.1951005961716175,-0.2393197378484532
1684099537614863400,9.47286328125,1.0589508350163697,-0.40335868232846256,0.3200297531913966
1684099537624858400,9.4828583984375,-0.47026598043143747,0.5095055194079876,0.8302510927185416
1684099537634854400,9.4928544921875,-1.469930513742566,0.9013152182400226,0.9721177702158689
1684099537644849400,9.502849365234376,-1.5849930632054805,0.8188748354405164,0.7177528407856821
1684099537654845200,9.51284521484375,-0.968548095035553,0.5689841288149357,0.2168944824853912
1684099537664840400,9.52284033203125,-0.29880408287644383,0.25138942075073717,-0.020596870892122386
1684099537674836500,9.53283642578125,0.07666355296373367,-0.11761515655517578,-0.15265088716633618
1684099537684831500,9.54283154296875,0.13053425936102867,-0.43388592253923414,-0.31713764847908166
1684099537694827300,9.5528271484375,-0.050934652945399284,-0.5636544582247733,-0.3609754384987056
1684099537704822300,9.562822265625,-0.24316402871906756,-0.5874123504310846,-0.305349485931918
1684099537714818300,9.572818359375,-0.37998306743800636,-0.5469751261025667,-0.19672252247445285
1684099537724813600,9.5828134765625,-0.38791970565617084,-0.3587240063101053,-0.05392835486866533
1684099537734809300,9.592809326171874,-0.19485797071158883,-0.13486439751982687,0.09659019644409418
1684099537744804400,9.602804443359375,0.08754793507158756,0.041372459352016444,0.23939470278080552
1684099537754800400,9.61280029296875,0.37048166412115097,0.22597207089960575,0.369808989023976
1684099537764795400,9.62279541015625,0.5892009874135256,0.36708033124506473,0.49158269003070887
1684099537774791200,9.632791259765625,0.636463089326024,0.3564858719944954,0.505734622567147
1684099537784786400,9.642786376953126,0.4952478614747524,0.22035072388648985,0.38121282842867077
1684099537794782500,9.652782470703125,0.23507249220013618,0.08314180906713009,0.19677118392176926
1684099537804777500,9.662777587890625,-0.06535422344207763,0.012268529942631721,-0.008449811904691159
1684099537814772500,9.6727724609375,-0.3043552872627973,-0.03553191663026809,-0.13364161425922066
1684099537824768300,9.682768310546875,-0.45225393840074535,-0.07065759054720401,-0.2383144697960466
1684099537834763300,9.69276318359375,-0.46165363490879535,-0.046079029607772826,-0.33193197057228535
1684099537844759300,9.70275927734375,-0.27328794882595536,-0.04204582856893539,-0.3500778315830976
1684099537854754600,9.712754638671875,-0.03915536782443523,-0.01032265657186508,-0.3034033203002065
1684099537864750300,9.722750244140625,0.12611702744066713,0.042539165043830866,-0.18868688086122273
1684099537874745300,9.732745361328124,0.15466390748918055,0.06540507684648036,-0.1762926421796903
1684099537884741400,9.742741455078125,0.060279988917708395,0.06401683735847473,-0.22088475769795476
1684099537894736400,9.752736328125,-0.029136078113317487,0.0030979660153388974,-0.2027440112536773
1684099537904732200,9.762732177734375,-0.00898994666337967,-0.056747723138332366,-0.23237269518952816
1684099537914727400,9.7727275390625,0.09222703279852866,-0.12444003413915633,-0.2980166953584179
1684099537924723500,9.782723388671876,0.2467009706735611,-0.1150654720723629,-0.2770214727984741
1684099537934718500,9.792718505859375,0.35061785674393176,-0.04566518810987472,-0.18442235528454184
1684099537944714200,9.80271435546875,0.33473288986980915,0.09646247841119766,-0.05186280064098537
1684099537954709200,9.812709228515626,0.2058791309416294,0.30880232979953287,0.04586640977039933
1684099537964705300,9.822705322265625,0.0241249719530344,0.4506774828642606,0.08596329622864722
1684099537974700500,9.832700439453125,-0.13384148421287537,0.44786768614053724,0.07052841120958328
1684099537984696300,9.8426962890625,-0.1182984626442194,0.2989811930090189,0.02563669169023633
1684099537994691300,9.85269140625,-0.01073883615732193,0.06550269200205802,0.04186232522819191
1684099538004687400,9.862687255859376,0.10369710583984851,-0.08912088347673415,0.12564126315508037
1684099538014682400,9.872682373046874,0.17291618801653383,-0.07956979579925537,0.1823448914233595
1684099538024677400,9.882677490234375,0.1509492708802223,-0.006782207486033439,0.14273907641768455
1684099538034673400,9.89267333984375,0.16536241163611412,-0.010164835661649703,0.09057404142711312
1684099538044668400,9.90266845703125,0.2708382175862789,-0.08138415174484252,0.07279606388062239
1684099538054664400,9.91266455078125,0.446775214728713,-0.0997545056939125,-0.019074666293524205
1684099538064659500,9.922659423828126,0.6141793613255023,-0.0529337178081274,-0.04706435085069388
1684099538074655200,9.9326552734375,0.684416096112132,-0.032302433189749714,-0.027212014715559778
1684099538084650200,9.942650146484375,0.6403028136193752,-0.03684942896962166,0.002211611634865403
1684099538094646500,9.952646484375,0.6123913088649511,0.08142565279901028,0.009275704802200198
1684099538104641500,9.9626416015625,0.7029454400151968,0.2714092954725027,0.03759447518326342
1684099538114637300,9.97263720703125,1.2374474535137414,0.3378267642319202,0.10718534981440753
1684099538124632300,9.98263232421875,1.8035972356855867,0.4270382486015558,0.14948979278691113
1684099538134628400,9.99262841796875,1.342517016750574,0.4180979862987995,0.32828809764459727
1684099538144623400,10.002623291015626,0.30091771402955053,0.4985281983196735,0.7204065701648592
1684099538154619400,10.012619384765625,-1.0121849921882151,0.4832429509043693,0.6019326048232615
1684099538164614400,10.022614501953125,-1.2198264566272496,0.058341129809617996,-0.1928849536055699
1684099538174610400,10.0326103515625,-0.12698796505630017,-0.2716220614403486,-0.7268562577608972
1684099538184605400,10.04260546875,0.6953221055299044,-0.15950082612633704,-0.6370452731281518
1684099538194601200,10.052601318359375,0.870631326162815,0.13946692287921905,-0.3497298949282616
1684099538204596200,10.06259619140625,0.5104594591319561,0.38224575167298314,-0.11223854155074804
1684099538214592500,10.072592529296875,-0.012833762609958648,0.5285848984092474,0.02411207593884319
1684099538224587500,10.08258740234375,-0.5630220055401325,0.5695148746907711,-0.012230061095766723
1684099538234583300,10.092583251953124,-0.8818255048722028,0.4724684589117765,-0.15892854266371578
1684099538244578300,10.102578369140625,-0.5302753357142209,0.15356091468334196,-0.3181225678632036
1684099538254574300,10.11257421875,0.4279688074499368,-0.1369108086556196,-0.31952589532248676
1684099538264569300,10.1225693359375,1.1067127031445503,-0.30316870782673355,-0.0346691623210907
1684099538274565400,10.1325654296875,1.0051432569831609,-0.3675724986761808,0.2103672361411154
1684099538284560400,10.142560302734376,0.32055472691357134,-0.4951426475346088,0.17159213633853942
1684099538294555400,10.152555419921875,-0.34299276869297024,-0.6444780534774065,0.09829349323064088
1684099538304551400,10.162551513671875,-0.7452513808250427,-0.7943576492995024,0.10357596367821097
1684099538314546400,10.17254638671875,-1.1058218917846678,-0.8571423145145177,0.19808102441132067
1684099538324542200,10.182542236328125,-1.5447405477941036,-0.7851479224056005,0.3755838095657527
1684099538334537200,10.192537109375,-1.8802239637702702,-0.7330705291658639,0.48592196085527534
1684099538344533500,10.202533447265624,-1.6784844168514013,-0.7288561263412237,0.5444277066420763
1684099538354528500,10.212528564453125,-0.8322598021924495,-0.693347590586543,0.5933826570123434
1684099538364524300,10.222524169921876,0.13570786260664464,-0.4169312806069851,0.6381809260945767
1684099538374519300,10.232519287109374,0.4056646211832762,-0.07895663233697414,0.39483058102317153
1684099538384515300,10.242515380859375,-0.12744623021781443,-0.016914309921860694,-0.060381038139387964
1684099538394510300,10.25251025390625,-0.7754337531208991,-0.23865853399336337,-0.11082323139272629
1684099538404506400,10.26250634765625,-1.147849600175023,-0.48331250900924205,-0.10284830699078738
1684099538414501400,10.27250146484375,-1.1944184591263531,-0.5326683683305978,-0.2651741274099797
1684099538424497400,10.282497314453124,-0.9985311453670263,-0.4464613264739513,-0.4287057434223592
1684099538434492400,10.292492431640625,-0.7718465422838926,-0.4437795400440693,-0.43601065960824487
1684099538444488200,10.30248828125,-0.3919301103413105,-0.665409782347083,-0.4730070227678865
1684099538454483200,10.312483154296874,0.09902093072235583,-0.9113409376919269,-0.6438648169498891
1684099538464479500,10.3224794921875,0.5003752874910831,-0.8754197294831275,-0.8182141795746981
1684099538474474500,10.332474609375,0.4605149862676859,-0.3131014882981777,-0.8506750181965529
1684099538484470300,10.34247021484375,0.06372516093552112,0.21572715573906898,-0.6415566861379891
1684099538494465300,10.35246533203125,-0.28016835598945616,0.37155718439817426,-0.21362295000143347
1684099538504461300,10.36246142578125,-0.4033966762512922,0.4213239626079798,0.0063605480078607795
1684099538514456000,10.3724560546875,-0.48038346982002256,0.5121913974910974,-0.08095555106922983
1684099538524452000,10.3824521484375,-0.45407297052145,0.394812387779355,-0.3227647311132401
1684099538534446800,10.39244677734375,0.08821253646016121,0.14341361467838287,-0.6280251505222171
1684099538544441900,10.40244189453125,0.5254466003835201,0.12327040583789348,-0.6874332519762217
1684099538554438000,10.41243798828125,0.46729953184127804,0.27396950134932996,-0.22961371533758937
1684099538564433000,10.422432861328126,-0.061767012605071066,0.24689210933148859,0.26042598303481934
1684099538574429000,10.432428955078125,-0.7185358078569173,-0.07652852840721606,-0.036791561302542686
1684099538584424000,10.442423828125,-0.9326450070053338,-0.44424540399014945,-0.7441518220853061
1684099538594420000,10.452419921875,-0.6798112326651812,-0.6869926686018705,-1.1981735738761723
1684099538604415000,10.4624150390625,-0.5197819987505674,-0.9043652534604072,-1.2921055108964443
1684099538614410800,10.47241064453125,-0.4961719905823469,-1.0708084460705518,-1.1053330122891813
1684099538624405800,10.48240576171875,-0.5202724126160144,-1.1966162614315747,-0.7230574499998241
1684099538634402000,10.492402099609375,-0.7957347828716039,-1.2756208245635032,-0.29018676891773937
1684099538644397000,10.50239697265625,-1.3385457750320433,-1.2068208445817232,0.16907412563562393
1684099538654392800,10.512392822265625,-1.8792051421165465,-1.0139864886522292,0.3793834941096604
1684099538664387800,10.522387939453125,-1.6322697781652211,-0.8730600146144628,0.295871098164469
1684099538674384000,10.5323837890625,-0.7016425407230854,-0.6514870554566383,0.4393937261752784
1684099538684379000,10.54237890625,-0.1638683736860752,-0.3088409082442522,0.592656826955825
1684099538694375000,10.552375,-0.2687041281670332,0.05265022469162941,0.7547823024973273
1684099538704370000,10.562369873046874,-0.4978267720520496,0.3229664642304182,0.9773576436307281
1684099538714366000,10.572365966796875,-0.4832856210023164,0.3626408874928951,1.3264786128804087
1684099538724361000,10.58236083984375,-0.30255495984256264,0.10170622428357601,1.4363091069087386
1684099538734357000,10.59235693359375,-0.3524146770328283,-0.3745727328270674,1.3345945531882344
1684099538744351700,10.602351806640625,-0.39269349592924113,-0.7710895864367484,0.915243717284128
1684099538754348000,10.61234814453125,-0.6416799471914768,-0.6971084044247865,0.4116895805612206
1684099538764343000,10.622343017578125,-0.40358869169205425,-0.20876783812046049,0.10249379446469246
1684099538774339000,10.632339111328125,-0.1054015716701746,0.7566139018386602,-0.17584193927012384
1684099538784333800,10.642333740234376,-0.07181757423728705,1.193001578065753,-0.433131743171066
1684099538794329900,10.652329833984375,-0.03807195650190115,1.0098264463633297,-0.2754564519714564
1684099538804324900,10.662324951171875,-0.14110124608278274,0.5583545982509851,0.1504198401786387
1684099538814321200,10.672321044921874,0.1677022527605295,-0.029388591569662094,0.6597639584798366
1684099538824316000,10.68231591796875,0.734058955681324,-0.5518810183227062,1.1302763148877768
1684099538834311000,10.692310791015625,0.9975094011038541,-0.851106541481614,1.092938517879322
1684099538844307000,10.702306884765624,1.009483332014084,-1.119777351900935,0.3235242442436516
1684099538854302000,10.712302001953125,0.7522405090600252,-0.2673357624232769,-0.8476995095171034
1684099538864298000,10.722298095703126,0.6578162584781646,1.3959686209529638,-1.8991342698149383
1684099538874292700,10.732292724609374,0.47979894793033595,2.2029671406388283,-2.347637769640982
1684099538884289000,10.7422890625,0.09842296482920646,1.5863064838916063,-2.018762665888667
1684099538894284000,10.752283935546876,0.41820641510933637,0.7335673727720975,-0.7991139039158821
1684099538904280000,10.762280029296875,1.11870533875525,0.205495684581995,0.5771638550739735
1684099538914274800,10.77227490234375,1.539269715167582,0.2618073543906212,1.6568237891852855
1684099538924270800,10.782270751953124,1.9315993462204932,0.6355979969292879,2.1404045937418936
1684099538934265900,10.792265869140625,2.058796570113301,0.89755265083611,1.3912380852997301
1684099538944262100,10.80226220703125,1.7051199103206396,0.8199193760573863,0.21846052622571585
1684099538954257000,10.8122568359375,0.9826911866784095,0.33087972157299517,-0.24935583256389945
1684099538964253000,10.8222529296875,0.7687205192178488,0.05532090520560741,-0.20038897256013005
1684099538974248000,10.832248046875,0.4560784651249647,0.27723697871267794,-0.07127053481377661
1684099538984244000,10.842243896484375,0.36967239356487985,0.4160550822943449,-0.6296478563532233
1684099538994239000,10.852239013671875,0.5011152922034263,0.39436289044618605,-1.2185263338141143
1684099539004235000,10.862235107421874,0.8252040384620427,0.2973497924149036,-1.6860997141607106
1684099539014230000,10.87222998046875,1.3076006016701458,0.4924556004077196,-1.6191209582567214
1684099539024226000,10.88222607421875,1.3494777956739068,0.5656090994238853,-1.0056091939944773
1684099539034221000,10.892220947265624,1.1150327877223492,0.572066312739253,-0.4265591233151033
1684099539044216800,10.902216796875,0.7240002107426524,0.7015840885341167,0.14225363098829985
1684099539054211800,10.9122119140625,0.3039136809751391,0.37344811271131034,0.032269151974655685
1684099539064208100,10.9222080078125,0.021019991675019264,0.2343389172285795,-0.2649595713438466
1684099539074203100,10.932203125,-0.3420154480934143,0.23531448426246643,-0.44529754339158534
1684099539084199000,10.942198974609376,-0.528246167974174,-0.125770405960083,-0.8512693308278918
1684099539094194000,10.95219384765625,-0.3835188403487205,-0.5127624753773212,-1.0168728577435016
1684099539104190000,10.96218994140625,-0.45512014148682356,-0.6781441762357949,-0.7000003264740109
1684099539114185000,10.97218505859375,-0.4846212535202503,-0.7904431062042713,-0.2586749198500998
1684099539124181000,10.982180908203125,-0.4055588227212429,-1.0681295822501182,0.49310814603231845
1684099539134176000,10.992176025390625,-0.3484448966190219,-0.26110125194787975,0.6254901521518826
1684099539144171000,11.0021708984375,-0.7192462942138313,0.027031799310445782,0.326244609118253
1684099539154167000,11.0121669921875,-0.6602163053572178,-0.20646073022186756,0.31712964783571657
1684099539164162000,11.022162109375,-0.42158319806605576,-0.08740764981806277,0.8776491690356284
1684099539174157800,11.03215771484375,-0.5042103356093168,0.05755962404310703,0.7957303258921951
1684099539184153000,11.042153076171875,-0.4875321725308895,0.11598375596106052,0.47546807911917566
1684099539194149000,11.052149169921876,-0.27966449812054633,0.17168401587307452,0.017915212326403706
1684099539204144000,11.06214404296875,-0.056175768469274044,-0.010845803663134574,0.03561979584312066
1684099539214140000,11.072139892578125,0.035660511445999146,0.03793839325010776,0.1424548709151335
1684099539224135000,11.082135009765626,-0.01279050799012184,-0.04953939919471741,0.14782348527619615
1684099539234131000,11.092130859375,0.10537643722891807,-0.09944061743915081,0.20318371784519404
1684099539244126200,11.102126220703125,0.21099369747638702,-0.21374328844547272,0.6137718765031546
1684099539254122000,11.1121220703125,0.463028722654283,-0.3168295689105987,0.6907672187045216
1684099539264117000,11.122116943359375,0.43209962364435195,0.25262217741608617,0.4109058097723871
1684099539274113000,11.132113037109375,0.6069298285886645,0.3024795565187931,-0.1189288786354009
1684099539284108000,11.14210791015625,0.8625660931289195,0.25477146440446374,-0.4202676584880799
1684099539294103800,11.152103759765625,0.7766837531819939,0.3330272549957037,-0.8434276043515652
1684099539304099000,11.16209912109375,0.6295829744234681,0.2027981160610914,-1.1526331811897457
1684099539314095000,11.17209521484375,0.6778127523243427,-0.0031967502146959302,-0.8558610425323248
1684099539324090000,11.182090087890625,0.648899084790051,-0.0781961693584919,-0.6444020656317472
1684099539334086000,11.1920859375,0.4474935921311378,0.1125210482865572,-0.43451837522387504
1684099539344081000,11.202080810546875,0.27132059427574273,0.1417640939056873,-0.3479198498316109
1684099539354077000,11.212076904296875,0.2587688634775579,0.014532383221387862,-0.3876121010117233
1684099539364072200,11.222072265625,0.22076441925391554,0.075294018176198,-0.1493438084449619
1684099539374068000,11.23206787109375,-0.0712009036436677,0.11822013671100139,0.19482456163233144
1684099539384063000,11.24206298828125,-0.00784223793298006,0.25655016451478,0.10136038825428113
1684099539394059000,11.25205908203125,0.1255307519853115,0.3855342718243599,0.15005555517720057
1684099539404054000,11.262053955078125,0.4504489348053932,0.4897440033614635,-0.7208636662825941
1684099539414049800,11.2720498046875,0.39664004159793254,0.48753860227167606,-0.35792123855985697
1684099539424045000,11.282045166015624,0.2794213370144367,0.43199791683554645,-0.025561927687283603
1684099539434041000,11.292041015625,0.2472296707227826,0.35724516592919825,-0.09657231372753157
1684099539444036000,11.3020361328125,0.10863251641541719,0.20220541086494923,0.07004101128512993
1684099539454032000,11.312031982421875,0.014584113408625124,0.25162907472550866,0.30812501505985856
1684099539464027000,11.32202685546875,0.16931757900267838,0.3427887705534696,0.2387846628573723
1684099539474023000,11.33202294921875,0.297526318025589,0.3972399071872234,0.07136749238222836
1684099539484018200,11.34201806640625,0.6052981357336044,0.39147535231113434,-0.03496230004876852
1684099539494014000,11.352013916015625,0.8178091059051453,0.34981998436450956,-0.12975574926920233
1684099539504009000,11.362009033203124,0.8619488380134105,0.21428221762776373,-0.3038597405645065
1684099539514005000,11.3720048828125,0.8571350079908967,0.23392507573068141,-0.43917664935849604
1684099539524000000,11.382,0.8159823288694024,0.22686931200027463,-0.4434833335764706
1684099539533995000,11.3919951171875,0.761401720637083,0.29669980407357216,-0.4528905558038503
1684099539543991000,11.401990966796875,0.7827636576175689,0.33189328252971173,-0.4572424674030393
1684099539553986000,11.411986083984376,0.9086009913340211,0.2795943554937839,-0.4914391899067908
1684099539563982000,11.421982177734375,0.9138856537386775,0.2830821976095438,-0.46955176774747664
1684099539573977000,11.43197705078125,0.7292410340055823,0.28859190094172954,-0.3992260760357603
1684099539583972900,11.441972900390626,0.5776337376080453,0.25304946291744707,-0.1968543138942681
1684099539593967900,11.4519677734375,0.4981843533180654,0.22281565269529818,0.013859671591594815
1684099539603964000,11.4619638671875,0.35932781742215153,0.2133732860893011,0.19488237450048326
1684099539613959200,11.471959228515624,0.14139350702762604,0.17365210107564924,0.2974791178829968
1684099539623955000,11.481954833984375,0.01602247564867139,0.1232341654807329,0.360849072172679
1684099539633950000,11.491949951171875,-0.020498013627529142,0.09073708650171756,0.41299737522415814
1684099539643946000,11.501946044921874,-0.08790449342429638,0.11849544652104377,0.42452232025787234
1684099539653941000,11.51194091796875,-0.13708791878819465,0.10938859547972679,0.3322840354129672
1684099539663936800,11.521936767578126,-0.10206278263628482,0.06365034213364124,0.23350971812913193
1684099539673932000,11.53193212890625,0.003994038072228432,0.060037996855378147,0.13270175785953178
1684099539683928000,11.541927978515625,0.09984218397736548,0.06549860034883022,-0.00355913551999256
1684099539693923000,11.551923095703126,0.1674456476509571,0.11740648224055766,-0.03753026910694316
1684099539703918800,11.5619189453125,0.14907880083322525,0.11123685369491576,-0.22506966043347493
1684099539713913900,11.571913818359375,0.13775529665574432,0.07245207274854183,-0.3018322898575105
1684099539723910000,11.581909912109374,0.29583704976439473,0.13553718221485614,-0.33538623921200633
1684099539733905200,11.5919052734375,0.28921324771046636,0.16962766786515712,-0.2951904041576199
1684099539743901000,11.60190087890625,0.20264584810882805,0.12835282366871834,-0.20106405881009995
1684099539753896000,11.61189599609375,0.1764095830902457,0.09031973787248133,-0.15290844212397933
1684099539763892000,11.62189208984375,0.2595616212904453,0.017509937727451325,-0.1316541850353591
1684099539773887000,11.631886962890626,0.23892624501883983,-0.014433014500141143,-0.0693090072161518
1684099539783882800,11.6418828125,0.09087970984280108,0.11655249575972557,0.04945977635355666
1684099539793878000,11.6518779296875,0.07759703442156314,0.03291150499880314,-0.07291800975985825
1684099539803874000,11.6618740234375,0.16200228755325077,-0.047236967471241946,-0.16031590536888687
1684099539813869000,11.671869140625,0.12808745073080063,0.0460538951665163,-0.09820420751199126
1684099539823864800,11.68186474609375,0.12189970200657844,0.10524784241318702,-0.05190094069428742
1684099539833859800,11.69185986328125,0.16419336785674093,0.117788175034523,-0.06556740040187724
1684099539843856000,11.70185595703125,0.12463204957991837,0.22770167117118834,-0.02920766377849504
1684099539853851100,11.71185107421875,0.0708823392137885,0.2274637707620859,-0.045860893345065414
1684099539863847000,11.721846923828124,0.16772504911422728,-0.14445581720769404,-0.18238891322817652
1684099539873842000,11.731842041015625,0.2532265730500221,-0.4277268153876066,-0.2144406595924869
1684099539883838000,11.741837890625,0.21836802563667296,-0.18248481135070324,-0.06920660628760233
1684099539893833000,11.7518330078125,0.2500219317898154,0.0742921476572752,-0.14026196398073806
1684099539903828700,11.761828857421875,0.23461861095279454,-0.06691665045320987,0.15335286142323165
1684099539913824000,11.771823974609376,0.13318302030414342,-0.3025005993068218,0.4022268652869388
1684099539923820000,11.781820068359375,0.11715192295759916,-0.21078151603043077,0.5159180898640304
1684099539933815000,11.79181494140625,0.10927695179879665,-0.06980652667582035,0.5188176837630569
1684099539943810800,11.801810791015624,0.25360885036587716,-0.111283030924201,0.44303295946046706
1684099539953805800,11.811805908203125,0.4589470062986016,-0.2047153478592634,0.31868067666999994
1684099539963801900,11.8218017578125,0.5509238637283445,-0.13528583780229092,0.20402959408480673
1684099539973797000,11.831797119140624,0.6258198224976659,0.13019582118690012,0.015426299853809177
1684099539983792000,11.841792236328125,0.6473237982973457,0.29836276884973045,-0.07707150357696227
1684099539993788000,11.851787841796876,0.6916352337107062,0.07151040798425674,-0.05772758275484666
1684099540003783000,11.861782958984374,0.768895291262865,-0.022197218760848045,0.17061684329928828
1684099540013779000,11.871779052734375,0.5633665811941028,0.11513619922101496,0.5156645534943789
1684099540023774000,11.88177392578125,0.34235827018171544,0.10994389127492904,0.7219367023415864
1684099540033770000,11.89177001953125,0.26445436176806686,-0.10723813944756984,0.6558236964214593
1684099540043765000,11.901764892578125,0.1275377078935504,-0.2427127778202295,0.45779286782741546
1684099540053761000,11.911760986328124,0.08018471282720566,-0.07738777558505534,0.23389416913576422
1684099540063756000,11.921756103515625,0.2451537412315607,-0.005970306581258774,-0.12870141791068015
1684099540073751800,11.931751708984375,0.5452496174842119,0.06748012955486773,-0.4467405087415129
1684099540083746800,11.941746826171874,0.6215709328815341,-0.12323767261207103,-0.6607816110897808
1684099540093743000,11.9517431640625,0.7148819615244865,-0.42451311403810976,-0.5574146870523691
1684099540103738000,11.961738037109376,0.6407061337232589,-0.4956090960025787,-0.15395062638698145
1684099540113734000,11.97173388671875,0.5153332026481628,-0.5496627577513457,0.2795603801589459
1684099540123729000,11.98172900390625,0.3306435747295618,-0.3196411191999912,0.5925921642217785
1684099540133725000,11.991724853515626,-0.02553893040418625,-0.019515432330965993,0.7587719566553831
1684099540143720000,12.001719970703125,-0.09856617269217967,0.14101006066799163,0.675040949523449
1684099540153716000,12.011716064453125,0.06162205117642879,0.3098065384060144,0.47046300084087994
1684099540163711000,12.0217109375,0.15732932730615137,0.26665420989990235,0.1337330919349566
1684099540173707000,12.03170703125,0.2272220709607005,-0.11030629484653472,0.04953738990072161
1684099540183702000,12.041701904296875,0.26849282350391146,-0.5317115059971809,0.24988701683115214
1684099540193698000,12.051697998046874,0.22647592876851558,-0.49117900460064406,0.5016552442990243
1684099540203692800,12.06169287109375,0.14400222822129727,-0.10953472595214843,0.7349585348695516
1684099540213689000,12.071689208984376,0.13077917403280734,0.25050094747841356,0.9501910389594733
1684099540223684000,12.08168408203125,0.06258592777252196,0.7300017892450094,1.0204312078122049
1684099540233680100,12.09168017578125,-0.3478419622898102,1.1170797833800314,0.6738915602926164
1684099540243675000,12.1016748046875,-0.5523638334035873,0.9204781838715076,0.04266607935912907
1684099540253671000,12.1116708984375,-0.5333166031062603,0.2321171495258808,-0.5399264131674543
1684099540263666000,12.121666015625,-0.6607578648880124,-0.4619119935840368,-1.0798108138240874
1684099540273662000,12.131661865234374,-0.8267699726045131,-0.9393629170835017,-1.548715881165862
1684099540283657000,12.141656982421875,-0.6938111164450645,-1.1840186456650494,-1.8326362831652163
1684099540293653000,12.151653076171876,-0.15698153678178786,-0.9776917709559202,-1.9139526303708552
1684099540303648000,12.16164794921875,0.1878407854259014,-0.3483686165124178,-1.6872358785837889
1684099540313644000,12.17164404296875,0.17005319980084896,0.30659049896895885,-1.0620954166524113
1684099540323639000,12.18163916015625,-0.044827568241953844,0.7920832746267318,-0.2710638247693889
1684099540333634800,12.191634765625,-0.3773199857085943,1.023248237994313,0.35307189883254464
1684099540343630000,12.201630126953125,-0.6078852296173572,0.9648130001604557,0.5989965879039838
1684099540353626000,12.211626220703126,-0.46171851683855053,0.7889601741701364,0.5823174384448677
1684099540363621000,12.22162109375,-0.28785715692639346,0.7012392206192016,0.37006486348118633
1684099540373617000,12.231616943359375,-0.04538929377794265,0.6500210745573043,0.04106153023932129
1684099540383612000,12.24161181640625,0.4729220478981733,0.35379824034571644,-0.3002469934274442
1684099540393608000,12.25160791015625,0.7606903574973345,0.08718143984675407,-0.38098734910972415
1684099540403603200,12.261603271484375,0.26842297313809393,0.02948328411579132,-0.19359812510991467
1684099540413599000,12.271598876953124,-0.4921674311161041,-0.13240706749558448,0.10347464046189561
1684099540423594000,12.281593994140625,-0.8996522534638642,-0.2682452784836292,0.2013835182891227
1684099540433590000,12.291590087890626,-0.8405717034637927,-0.2629430804222822,0.0492521614848636
1684099540443585000,12.3015849609375,-0.3854547768473625,-0.16852116792798041,-0.05216229504421353
1684099540453580800,12.311580810546875,0.1168997017621994,-0.09801672211587428,-0.22137259601382536
1684099540463576000,12.321576171875,0.6612912411123514,-0.19029227023124692,-0.5854951551655307
1684099540473571000,12.331571044921875,0.9677052144706249,-0.28782851535379883,-0.7875973613843321
1684099540483567000,12.341567138671875,0.3041735009551048,-0.19674013119637965,-0.8344805469818413
1684099540493561900,12.351561767578126,-0.841087836292386,-0.1461000772833824,-0.8550706228069961
1684099540503558000,12.361557861328125,-1.4984750557035207,-0.12720423815548418,-0.8067930602416395
1684099540513552600,12.371552734375,-1.09093528829813,-0.021752397602796552,-0.6955498498711734
1684099540523548700,12.381548583984374,-0.09351765713095664,0.14530921916663647,-0.5143762672495097
1684099540533544000,12.3915439453125,0.6578033989965916,0.464970212110877,-0.27820699278861283
1684099540543539700,12.401539794921876,0.8756149597942828,0.8419839083492755,-0.13377677581305614
1684099540553534700,12.41153466796875,0.8986404460728168,1.1868214281260967,-0.07144738008487038
1684099540563530800,12.42153076171875,0.9949532868802546,1.3029308562934399,-0.05995167027879506
1684099540573525800,12.43152587890625,0.7411953834325075,1.1422680006504058,-0.12583428324284032
1684099540583521500,12.441521484375,0.6382984880596398,0.7325766081690788,-0.26233517765700815
1684099540593516800,12.451516845703125,0.9062532591640948,0.2599380533874035,-0.332571985508874
1684099540603512800,12.461512939453126,1.502338745394349,-0.14374562311172484,-0.3817727273337543
1684099540613507800,12.4715078125,1.872818655949831,-0.15143734665811062,-0.23040234496463088
1684099540623503600,12.481503662109375,1.39674018984735,0.3481558505445719,0.06120229139439761
1684099540633498600,12.49149853515625,0.2014391026675701,1.2062152799040078,0.3782885750124231
