time,seconds_elapsed,z,y,x
1684108714876808700,0.02180859375,-0.38486090260744094,0.36921675875186916,-0.5275230413313955
1684108714886826800,0.03182666015625,-0.19237375268042087,0.4931459207594394,-0.6221939601507037
1684108714896844500,0.041844482421875,0.13411971663236616,0.47944151279479263,-0.5863142529960721
1684108714906861800,0.05186181640625,0.7974544462710619,0.28283757519870995,-0.7889411772087216
1684108714916879600,0.061879638671875,1.5560446166187525,0.18275719855129718,-1.0704447273246944
1684108714926897700,0.071897705078125,1.3693214370459317,-0.1638292107194662,-1.2216716461025177
1684108714936914700,0.081914794921875,1.195439034345746,-0.41934652505517006,-0.781949564755708
1684108714946932700,0.0919326171875,0.4310603437244892,-0.20301906533539293,-0.1186796257152222
1684108714956950800,0.10195068359375,-0.32879648555815216,-0.06369301223158837,0.2605307037846185
1684108714966967800,0.1119677734375,-0.9996242013007401,-0.2700187178969383,0.6475918746490031
1684108714976985600,0.121985595703125,-0.9221347189068794,-0.025803134298324582,0.2662455377674661
1684108714987004000,0.13200390625,-0.654922875124216,0.3051879386946559,-0.7124586799003183
1684108714997020700,0.142020751953125,-0.44169630402922627,0.5423498043894768,-1.149373156480491
1684108715007038700,0.152038818359375,0.018729834911227226,0.6238695652127265,-1.2306874578595162
1684108715017056800,0.162056884765625,-0.004514847075939178,0.47421062640398737,-1.074263116569072
1684108715027073500,0.172073486328125,-0.7186398527532816,0.24207301861196756,-0.6476131366327404
1684108715037091800,0.182091796875,-1.1255091735512017,0.1432040635809302,-0.21871722266683355
1684108715047109600,0.192109619140625,-1.6594956387430428,0.5436339989811182,-0.16561050464566796
1684108715057126700,0.202126708984375,-3.5378351039409637,1.1011673439770937,-0.6224596984148025
1684108715067144700,0.212144775390625,-2.9811539918601513,0.7326496734052896,-1.4331830838426947
1684108715077162800,0.222162841796875,-5.025150467726588,1.1935060204565524,0.24996424678582696
1684108715087179800,0.2321796875,-1.6648299855083226,-0.3045899728015065,6.274774681246281
1684108715097197800,0.24219775390625,0.2820493474304676,-1.2600962154343724,6.485086241677403
1684108715107215600,0.252215576171875,-0.2821025389224291,-0.5091019070431589,-0.9197440243780612
1684108715117233000,0.26223291015625,-0.729139034935832,1.3550307536259292,-2.3864311722852287
1684108715127250700,0.272250732421875,-0.2631599380433559,2.374947509109974,0.47908659840989853
1684108715137268700,0.282268798828125,0.1856751318246126,2.604540400855243,1.2294206527940927
1684108715147285800,0.29228564453125,2.172325334137678,1.3064829958170652,0.3964053195266053
1684108715157303800,0.3023037109375,2.1711767486244438,-1.04966278218925,0.09947188936024903
1684108715167321600,0.312321533203125,0.3496101410061121,-0.7156906475588679,0.40273770088590677
1684108715177338600,0.322338623046875,0.7824100218743085,0.003345511035621166,0.06354224211666733
1684108715187356700,0.332356689453125,1.557414151406288,0.3974088340133428,0.0076801975053735075
1684108715197374700,0.342374755859375,1.5650596977233886,1.197984627175331,0.0521776022111997
1684108715207391700,0.352391845703125,1.3999112210988998,1.7213421463251113,0.6912983299065381
1684108715217409500,0.362409423828125,0.6178472361832856,2.0804846703082323,0.5095549115076661
1684108715227427800,0.372427734375,-1.0121224483460187,2.27275262452662,-0.551023524710536
1684108715237444600,0.382444580078125,-2.3457775287270546,1.753708292400837,-1.2819693168073891
1684108715247462700,0.392462646484375,-2.2643699961066246,1.0136448356077075,-2.1233542363502083
1684108715257480700,0.402480712890625,-1.236528585103154,1.6250345662146806,-2.7520909692078828
1684108715267497700,0.412497802734375,0.9130050715118646,2.138793651413917,-1.8549520137391984
1684108715277515800,0.422515869140625,3.0796734028011556,0.9525321952581405,2.029177092397213
1684108715287533800,0.432533935546875,3.4574873095065355,-0.8109285526111721,6.430408310550451
1684108715297550600,0.442550537109375,5.481654464787244,-1.8884964098140595,7.198878654399514
1684108715307569000,0.45256884765625,8.295152381116152,-2.0719684786364434,7.741474542504548
1684108715317586700,0.462586669921875,8.248648988616466,-1.3828884823665022,6.6660957197785375
1684108715327603700,0.472603759765625,4.800141104379296,-1.0650070663154125,3.6512741438552734
1684108715337621800,0.482621826171875,2.85133226468265,-0.4688537755459547,2.3754025594010946
1684108715347639800,0.492639892578125,4.533954511991143,0.5106868381470442,3.5541727830186485
1684108715357656800,0.50265673828125,4.887701314410567,0.35228345186859367,3.028338644622266
1684108715367674600,0.512674560546875,3.8706010776519775,0.3705792792767286,2.1850921689912677
1684108715377692700,0.522692626953125,2.812943789577484,0.940436683794856,1.4592109668076036
1684108715387709700,0.532709716796875,1.9515081617832182,1.309928167834878,0.4344514474675059
1684108715397727700,0.542727783203125,1.069215039399266,1.638939172926545,-0.6440931458130479
1684108715407745500,0.55274560546875,0.2992553337752819,2.113023834863305,-1.8741180481106041
1684108715417762800,0.5627626953125,-0.3566811023056507,2.445578796172142,-3.5195261247903105
1684108715427780600,0.572780517578125,-0.5929448501169681,2.915193034696579,-5.163609674867987
1684108715437798700,0.582798583984375,-0.25114625964462756,3.523770338231325,-6.7295899945676325
1684108715447815700,0.592815673828125,0.48914603746831414,3.94702439211905,-7.675621137368679
1684108715457833700,0.602833740234375,1.0594459250569344,4.084976234260202,-7.503226927399635
1684108715467851500,0.6128515625,1.1900900745332241,3.829140940016508,-6.466949696484208
1684108715477868800,0.622868896484375,0.8284352754682301,3.393978421670198,-5.014361947208642
1684108715487886600,0.632886474609375,-0.059706572943925854,3.004890256756544,-3.484914830136299
1684108715497905000,0.64290478515625,-1.205607377138734,2.46732885568738,-1.9185399581611156
1684108715507921700,0.652921630859375,-2.327097378176451,2.087603562402725,-0.7205857261240481
1684108715517939700,0.662939697265625,-3.475029980459809,1.7902520164221525,0.094604283323884
1684108715527957800,0.672957763671875,-4.279753540951013,1.718617982058227,-0.04578033892214298
1684108715537975800,0.682975830078125,-4.359090404777229,2.0347543080076576,-1.2260907777190209
1684108715547993000,0.6929931640625,-3.98020243909955,2.1952491136074066,-2.7553590310931204
1684108715558011100,0.70301123046875,-3.341695276725292,2.237268638691306,-3.7730128100812435
1684108715568029200,0.713029296875,-2.5915198835015296,2.123729353272915,-4.036584251534938
1684108715578046200,0.723046142578125,-1.8796172300487755,1.8172402688518166,-3.5973061145633456
1684108715588064300,0.733064208984375,-1.2976163832724095,1.3882491326168178,-2.3469763831228017
1684108715598082000,0.74308203125,-0.9332365431576967,0.9347013550132512,-0.49129883158802984
1684108715608099000,0.75309912109375,-0.8407257249817252,0.465567008960247,1.3299813603043555
1684108715618117000,0.7631171875,-0.8822650653332471,-0.021119360396265982,2.412911621323228
1684108715628135000,0.773135009765625,-0.851740747731924,-0.2548682027772069,2.8244962802052496
1684108715638152200,0.783152099609375,-0.741242729705572,-0.39056758981645107,2.7517800035625695
1684108715648170000,0.793169921875,-0.9220885416775941,-0.20600100375562905,2.9511545749157664
1684108715658188000,0.80318798828125,-2.032479933334887,-0.011388239976763725,3.9867309640854596
1684108715668205000,0.813205078125,-4.295834907180071,0.20401333706974983,5.604689308303595
1684108715678223000,0.82322314453125,-7.236675008830428,0.32323212942928076,6.613949352955818
1684108715688241000,0.833240966796875,-9.623440966027974,0.4115606934845447,6.312333135268092
1684108715698258200,0.843258056640625,-10.763367371988297,0.5899576509997249,5.17833728840053
1684108715708276000,0.85327587890625,-10.239114365303516,0.7491141937330364,3.723561089169979
1684108715718294000,0.8632939453125,-7.845803516507148,1.0382809719532728,2.285544301560521
1684108715728311000,0.87331103515625,-4.814603344973921,1.2259592602938414,1.0268079763025044
1684108715738329000,0.8833291015625,-2.1526056114062664,1.3050459487512707,-0.03463116839826107
1684108715748347100,0.89334716796875,-0.4125155099913478,1.3602578406244517,-0.897129456987977
1684108715758364000,0.903364013671875,0.18111498430222273,1.3575740083679555,-1.2760112851858139
1684108715768382000,0.9133818359375,-0.22437135770469901,1.2236650118768215,-0.8273416350126266
1684108715778400300,0.923400146484375,-0.9384475558042525,1.1460714845865965,0.47590778571069237
1684108715788417000,0.9334169921875,-1.2847498874366283,0.9450772030770778,1.46637954326272
1684108715798435000,0.94343505859375,-1.0049202618822455,0.6882888458922505,1.4527981771558522
1684108715808453000,0.953453125,-0.4194853490039706,0.8122754371754825,1.0823404784321784
1684108715818470000,0.963469970703125,0.2441789048500359,0.5179109441816806,0.9311778570622206
1684108715828488200,0.97348828125,4.647304996839165,-1.1365727116182447,4.115653112074733
1684108715838506000,0.983506103515625,17.000321148884296,-5.373606178000569,13.071215275293588
1684108715848523300,0.993523193359375,9.414770743063091,-3.342178091806173,4.518551191154122
1684108715858541000,1.003541015625,0.604178191792965,0.06895195567309856,-1.7015134102612732
1684108715868559000,1.01355908203125,-1.9571897145509718,1.263567398676276,-2.141824981933832
1684108715878576000,1.023576171875,-3.2115187447607516,1.2011670566037296,-1.3553694840610027
1684108715888594200,1.03359423828125,-2.385207183448225,0.2527890584155917,-0.5821580831646919
1684108715898612000,1.043612060546875,2.155659738279879,-1.174431609891355,-0.5850444522559642
1684108715908629200,1.053629150390625,7.285218967247009,-2.6761092610284685,0.31279870595932
1684108715918647000,1.06364697265625,6.4595385434448716,-2.396381926804781,1.0380968475580215
1684108715928665000,1.0736650390625,2.703777604676783,-1.372207806137204,1.2687778268009424
1684108715938682000,1.08368212890625,1.7430056966006755,-2.212948728688061,2.2398288445681334
1684108715948700200,1.0937001953125,-1.7702759808421134,-1.3910028152391314,2.2314836255490778
1684108715958718000,1.103718017578125,-4.597467491480708,-1.0726192948848008,-0.11594459299445152
1684108715968735000,1.11373486328125,-0.8942465950280427,-1.6797092824712394,-1.7484136931240557
1684108715978753000,1.1237529296875,3.4059958994612094,-2.2636802602767943,-1.2684610159367322
1684108715988771000,1.13377099609375,3.8899683336839077,-2.784849037210643,-0.568144170859456
1684108715998788000,1.1437880859375,1.7525711050644517,-2.297840304031968,0.45111762784719467
1684108716008806000,1.153805908203125,-1.1701061479076742,-1.7234724363520741,0.6596382132083177
1684108716018824200,1.16382421875,-2.928852142214775,-1.2187778243571519,0.5542781425923109
1684108716028841000,1.173841064453125,-2.7304905472964047,-1.0239528791323305,-0.4570563702464103
1684108716038859000,1.18385888671875,-1.8134914377123117,-0.8004775934845209,-1.3624176490068436
1684108716048877000,1.193876953125,-0.14360124620497225,-0.6117334294781088,-2.11111186376214
1684108716058895000,1.20389501953125,1.3651099568307399,-0.1771682925030589,-2.289279396435618
1684108716068912000,1.213912109375,1.6463324980482459,-0.08075871332287787,-1.6721178044289349
1684108716078930200,1.22393017578125,1.293071725580096,0.33752778128534555,-0.5312906502366066
1684108716088947000,1.233947021484375,0.6183429107457399,0.8286281676918268,0.7485790639430284
1684108716098965200,1.24396533203125,0.05386661474406719,1.308726975351572,1.4488444710940123
1684108716108983000,1.253983154296875,-0.8464648531556129,1.694868857680261,1.3734621901124715
1684108716119001000,1.2640009765625,-2.0559332896366715,1.4583388601481915,0.7194412322640419
1684108716129018000,1.27401806640625,-1.6470380159690976,1.0221095893532037,0.22591128062307833
1684108716139036200,1.2840361328125,0.1107955396682024,0.2024085322216153,0.28598434879183765
1684108716149054000,1.294053955078125,1.6507196270912885,-0.5151747972160577,0.3405921372920275
1684108716159071000,1.304071044921875,1.8268743586376308,-0.9184151138618588,0.869249516415596
1684108716169089000,1.314089111328125,1.4047703515678642,-0.7898778735369444,1.806381313446164
1684108716179107000,1.324107177734375,0.27086685915887354,-0.5220382532447576,2.566055771899223
1684108716189124000,1.3341240234375,-1.460547476108372,-0.06529518673121928,2.1991320925205944
1684108716199142000,1.344141845703125,-2.6372628130227325,-0.0059486792713403696,0.17129413977265356
1684108716209160200,1.35416015625,-2.6579659938335416,-0.24882132382839917,-1.7297329580515621
1684108716219177000,1.364177001953125,-0.8624883517175912,-0.5701213161513209,-1.62768361941874
1684108716229195000,1.374195068359375,1.1892758355408906,-0.8925240090191364,-1.11900344491899
1684108716239213000,1.384213134765625,1.6208686787068842,-0.9556237315326929,-1.2254384512901306
1684108716249230000,1.39422998046875,1.1559054808586835,-0.8022364198505878,-1.3830465955376625
1684108716259248000,1.404248046875,0.2757400181531906,-0.7224170332044363,-1.13121936789155
1684108716269266200,1.41426611328125,-0.6091600718587636,-0.6022282267689705,-0.8230167575508356
1684108716279283000,1.424282958984375,-1.277933777680993,-0.5180167426437139,-0.44431613113880153
1684108716289301200,1.43430126953125,-0.8377642448276281,-0.42284430404305456,-0.01187339314520359
1684108716299319000,1.444319091796875,0.09155541714727879,-0.6096084001481533,0.635730098876357
1684108716309336000,1.454336181640625,0.36796354382038116,-0.7317857500523328,0.6135334646373987
1684108716319354000,1.46435400390625,0.5635556740254163,-0.5629828425735235,0.19135902267992497
1684108716329372200,1.4743720703125,0.8833721497923135,-0.36648528796136376,-0.0070113400667905805
1684108716339389200,1.48438916015625,1.047385484907031,-0.2924491608917713,-0.2083054813057184
1684108716349407200,1.4944072265625,0.29969255614876744,-0.24824001680910585,-0.12877777108252048
1684108716359425000,1.504425048828125,-0.7453928351223469,-0.13679974949657916,-0.2257955452889204
1684108716369442000,1.514442138671875,-1.7200357399016617,-0.08922025219798088,-0.15436813941299915
1684108716379460000,1.524460205078125,-1.707979975926876,-0.25028292081356046,-0.21041092915236947
1684108716389478000,1.534477783203125,-0.8165297336190939,-0.32088205917179585,-0.7389560800731182
1684108716399495200,1.5444951171875,-0.2541898651242256,-0.35693010863065716,-2.037008516675234
1684108716409513000,1.554512939453125,-0.2651952432632446,-0.39857612422704697,-3.0603748280912635
1684108716419531000,1.564531005859375,-0.31624153988957404,-0.3410544941067695,-3.174925336378813
1684108716429548000,1.574548095703125,-0.3997948523670435,-0.1586567765176296,-2.20076290859282
1684108716439566000,1.584566162109375,-0.6185153447031975,0.2846235818326473,-0.9810562789529561
1684108716449584000,1.594584228515625,-0.436903809055686,0.22402385944128037,0.23516133952736853
1684108716459601200,1.60460107421875,0.40479952878654,0.526343841484189,0.9115484429627656
1684108716469619000,1.614618896484375,1.4670570041328668,0.6060533380150794,1.2567869447559117
1684108716479637200,1.62463720703125,1.650144457551837,0.7499521058619022,0.9480810610681771
1684108716489654000,1.634654052734375,0.2428969022154808,0.8892354888677596,-1.1339952623456715
1684108716499672000,1.644672119140625,0.09985738154649734,0.7863321637541055,-3.0346897672146556
1684108716509690000,1.654690185546875,1.091000170227885,0.23225685025751588,-3.019865707570314
1684108716519707000,1.664706787109375,2.364754616397619,-0.3912193317234516,-1.772412408348918
1684108716529725200,1.67472509765625,2.546238141751289,-0.5775467899769544,-0.02041325795352459
1684108716539743200,1.6847431640625,1.3313731069236994,-0.6364245108813047,0.998472108656168
1684108716549759700,1.694759765625,-0.9128472506016493,-0.4142138383418321,1.650957527500391
1684108716559777800,1.70477783203125,-2.7223499109387395,-0.5823328552097082,2.6048455212816592
1684108716569795600,1.714795654296875,-3.0470120731711385,-0.7081862632781267,3.4448327028557655
1684108716579812900,1.724812744140625,-2.2266876234441995,-0.5054688112378121,3.1899840815618634
1684108716589830700,1.73483056640625,-1.1567097829788922,-0.28110008388161656,1.6956006790861486
1684108716599848700,1.7448486328125,-0.08851590332090854,-0.16129180119633674,0.17633154941797255
1684108716609865700,1.75486572265625,0.7606640540122985,0.028562077617645263,-0.3377104443758726
1684108716619883800,1.7648837890625,1.296613928231597,0.13428513632714748,-0.3433852751418948
1684108716629901600,1.774901611328125,0.8683189575672149,0.06823766992390155,0.14573358205854892
1684108716639918800,1.7849189453125,-0.08214461472332477,-0.1634071859151125,1.4222098544076085
1684108716649936600,1.7949365234375,-0.9675748660892247,-0.7371347098648547,2.1116393947675824
1684108716659954700,1.80495458984375,-1.022700540983677,-1.3934867410093545,3.586057283057272
1684108716669971700,1.8149716796875,-0.6344646089851856,-1.634164798131585,5.856275712931156
1684108716679989800,1.82498974609375,-0.617561404979229,-1.533189810732007,6.077392160493135
1684108716690007800,1.8350078125,-1.1981459552168845,-0.6916828722447157,3.2144451536014675
1684108716700024600,1.845024658203125,-0.49899113965630526,0.5407908845096826,0.0291354935914278
1684108716710042600,1.855042724609375,1.1044506034314632,1.1204267557203769,-1.4656027136713266
1684108716720060700,1.865060791015625,1.9363123462170362,1.3026742511838674,-2.41328045463562
1684108716730078700,1.87507861328125,1.7788000635594128,1.7407395052343606,-2.6808018027588725
1684108716740095500,1.885095458984375,0.9683043494075536,2.0126339538753033,-2.2787656012058255
1684108716750113800,1.89511376953125,0.38523791922628875,2.2412714445918795,-1.4980258506312965
1684108716760131600,1.905131591796875,-0.010430208599567413,1.8366431807190178,0.11779255894869566
1684108716770148900,1.91514892578125,-0.5851052425324916,0.7916331927716732,1.7802648754149675
1684108716780166700,1.925166748046875,-1.21861357370615,-0.2750514513671398,2.708181100332737
1684108716790184700,1.935184814453125,-1.4752268665850161,-0.9875234291404485,3.376362100958824
1684108716800201700,1.94520166015625,-0.9163894532531499,-1.3363713536024093,3.640519233345985
1684108716810219800,1.9552197265625,-5.380302460768818,-2.1895476870954034,0.9993594128847122
1684108716820237600,1.965237548828125,-11.077096636795996,-1.1094061800122261,-2.1062883891284465
1684108716830254800,1.9752548828125,4.534409854543209,1.5500369006365537,9.822155027645826
1684108716840272600,1.985272705078125,2.4983780739456414,-0.33122049783468244,6.526935086369514
1684108716850290700,1.995290771484375,5.617987765815854,3.351930839535594,2.7677611242875457
1684108716860307700,2.0053076171875,2.5435218685299157,3.8039725964903828,-2.744734761226177
1684108716870325800,2.01532568359375,3.230979232034087,4.787790741372108,-13.115572303414345
1684108716880343600,2.025343505859375,0.9038841919451951,5.144979793199896,-2.692361307649314
1684108716890360600,2.035360595703125,2.9262948589473963,3.0906197442293166,7.49508570652008
1684108716900378600,2.045378662109375,0.7734352727800607,3.2549381997704505,2.7983412637293337
1684108716910397000,2.05539697265625,-3.6923236548632383,-0.23582068021893499,-6.73882719399035
1684108716920413700,2.06541357421875,1.037920321947336,0.03506605268418789,-9.35604382880628
1684108716930431500,2.075431396484375,1.2413356931239365,-1.9504741425603627,-2.3456021721601483
1684108716940449800,2.08544970703125,-2.2646885605365035,-2.3870114563912153,1.9467858094364403
1684108716950466600,2.095466552734375,-4.015160355234146,-2.3487188428759573,1.3386468973189591
1684108716960484900,2.10548486328125,-4.0026176845252515,-2.174469944950938,4.049586940971016
1684108716970502700,2.115502685546875,-3.4181413875460622,-3.050491731980443,-1.6086381426870822
1684108716980519700,2.125519775390625,0.4291711689770221,-2.43610778799355,-5.890014316403866
1684108716990537700,2.135537841796875,2.85304842095077,-2.5688340044409035,-3.6519790772542353
1684108717000555800,2.1455556640625,0.9893559052646159,-1.4178367538899181,0.37934681536108256
1684108717010572500,2.155572509765625,0.28727088147103785,-0.639309126406908,1.572813672851026
1684108717020590800,2.1655908203125,1.7765286114960908,-0.01830313393175602,0.38527942028045653
1684108717030608600,2.175608642578125,1.7649737827807663,0.5636608879655599,-1.2704004595667122
1684108717040626000,2.1856259765625,0.6959744319587946,1.3373779002964497,-1.9979022486895321
1684108717050643700,2.195643798828125,1.2094324883848429,2.028840992310643,-1.2839447085335849
1684108717060661800,2.205661865234375,2.3719085798054933,2.0998440352946517,-0.2086132320806384
1684108717070678800,2.2156787109375,2.2462533246576784,1.8599264411509036,0.6397022173777223
1684108717080696800,2.22569677734375,0.5076332957953215,1.3337649704962968,0.4007145975604653
1684108717090714600,2.235714599609375,-1.1512561937481165,1.1905220362097024,-0.8182759927645326
1684108717100731600,2.245731689453125,-2.296439205062389,0.648016748997569,-1.240493981602788
1684108717110749700,2.255749755859375,-1.9711200402259825,-0.6531161179631948,1.3301339205175637
1684108717120767500,2.265767578125,-1.54877550239861,-1.161609829980135,1.9858850631594658
1684108717130784800,2.27578466796875,-0.8156108652085066,-0.8986942220866679,1.395544550321996
1684108717140802600,2.285802490234375,-0.2818745753854513,-0.37954935219585895,1.6085487108379601
1684108717150820600,2.295820556640625,-0.21724340552091598,0.8131225555241107,2.150762029366195
1684108717160837600,2.305837646484375,-0.5808142673403024,2.3529244778722522,2.2912165019780395
1684108717170855700,2.315855712890625,-1.2483540474534034,3.181069245961308,2.9433175976797936
1684108717180873700,2.325873779296875,-0.8146393898278474,3.629683951076865,3.1318563022419807
1684108717190890800,2.335890869140625,1.1806634900182484,3.748448862189054,2.029859521703422
1684108717200908500,2.345908447265625,2.437673137614131,3.3493536825239656,1.9869073919445275
1684108717210926800,2.3559267578125,1.2987708140045404,2.8515532139569517,1.850893532128632
1684108717220943600,2.365943603515625,-1.2440128033787012,3.5686768169283867,2.5485519716516136
1684108717230962000,2.3759619140625,-2.206940135923028,3.0246190395772454,1.9410002117723226
1684108717240979700,2.385979736328125,-0.6336193903326988,1.9181711248487232,-1.7875407116368411
1684108717250996500,2.39599658203125,0.5302811809331178,0.7526496743828058,-4.735395952746272
1684108717261014800,2.406014892578125,0.637265053358674,-0.7349930216610431,-3.592900280819833
1684108717271032800,2.41603271484375,0.021320435926318167,-2.1873171515643595,-3.3137253197818994
1684108717281049900,2.4260498046875,-1.0355419023782013,-3.5587457900226114,-2.1526132101908324
1684108717291067600,2.436067626953125,-2.6307301963835954,-5.378978518688679,-0.1890200583383441
1684108717301085700,2.446085693359375,-3.608215631112456,-6.706417208772898,1.126726440386474
1684108717311102700,2.456102783203125,-1.4736691157490014,-7.692201685291528,4.191365647923946
1684108717321120800,2.466120849609375,-0.5292044916123152,-7.898152712425589,4.904523269873857
1684108717331138600,2.476138671875,-0.8034118933707475,-7.221168812140822,1.6317039609760045
1684108717341156600,2.486156494140625,0.6883312237292528,-5.179031700405478,-2.588029411037266
1684108717351173600,2.496173583984375,1.0971306358069182,-2.783935137236118,-4.479160261008143
1684108717361191700,2.506191650390625,1.8659014239072798,-0.17860533956885336,-4.320949474692345
1684108717371209700,2.516209716796875,2.5479870312452313,1.8997189378350972,-3.087906685878336
1684108717381226800,2.526226806640625,3.386867712882161,3.455219949096441,-1.4428016837984323
1684108717391244500,2.53624462890625,2.765063848027587,5.4432987229079,0.010001461793482304
1684108717401262800,2.546262939453125,-1.3838853844493626,5.328160770121216,2.189643840946257
1684108717411279600,2.556279541015625,-1.3538316069692373,3.415962289941311,2.194617829966545
1684108717421297700,2.566297607421875,0.24457915621399878,1.3212468497067689,1.230074294397235
1684108717431315700,2.576315673828125,0.4573071301370859,0.2561158647507429,0.5915986962050199
1684108717441332700,2.586332763671875,0.18749591751098632,-0.4132043690383434,0.2476367902189493
1684108717451350800,2.596350830078125,-0.16870821493268012,-0.543628738284111,0.2963268791079521
1684108717461368800,2.606368896484375,0.2739145562916994,-0.4158791412055492,0.32272739477753637
1684108717471385600,2.616385498046875,0.03643967912495136,-0.12078560328483581,0.9278045812368393
1684108717481403600,2.626403564453125,-1.0834832187265158,0.48710547155141826,1.0915554660230875
1684108717491421700,2.636421630859375,-1.9945166979044675,0.649652241244912,0.9932359615683555
1684108717501438700,2.646438720703125,-0.9508189615994691,0.5121843832284212,-1.4457307229876517
1684108717511456800,2.656456787109375,-0.6781383310168981,0.08998071517646312,-1.9623878677159547
1684108717521474600,2.666474609375,-0.3185685215324163,-0.22850334294289348,-0.1033230118304491
1684108717531491800,2.676491943359375,0.06669628570079802,-0.31634295443743465,0.49174248370230195
1684108717541509600,2.686509521484375,0.45497488779723644,-0.13375439045131204,-0.5063718975573778
1684108717551529200,2.696529296875,-0.4010878147870302,0.6638599225565791,-0.5113789120644331
1684108717561546000,2.7065458984375,-1.1965724222898482,1.5722659758403896,1.0808487785696983
1684108717571564300,2.716564208984375,-0.8590221369117498,1.5395000167921185,1.1983785949289798
1684108717581582300,2.726582275390625,0.03975274919569492,1.819628333032131,-0.12944120342731474
1684108717591599000,2.73659912109375,-0.5761591350108385,2.3393618164658547,0.797967071968317
1684108717601617200,2.7466171875,-2.5069658695489165,2.794854882918298,2.4770909557670353
1684108717611635200,2.75663525390625,-3.97029946924448,2.95625803553462,3.1193355511039496
1684108717621652200,2.76665234375,-4.06063908086121,2.0470988257959486,0.5405822101950645
1684108717631670300,2.776670166015625,0.8163415175706148,3.2359897536724804,-9.393654305276273
1684108717641688000,2.78668798828125,5.663815451011061,0.99965255061239,-5.9103422341614955
1684108717651705300,2.796705322265625,4.407690769556164,0.8978893354445695,-3.264942876434326
1684108717661723100,2.80672314453125,1.9729396568685769,-0.07068564759790896,-1.5461603514641522
1684108717671741200,2.8167412109375,-0.05247895977795124,-1.5269892025262117,0.24158289700746535
1684108717681758200,2.82675830078125,-1.5464625492811201,-2.6670991483598945,-2.046221750700474
1684108717691776300,2.8367763671875,-0.507563153168559,-4.337401427799463,-1.8491694848150013
1684108717701794000,2.8467939453125,1.0575351229995489,-5.5356292160809035,1.7004723767757415
1684108717711811300,2.856811279296875,1.0207137510806321,-5.928917170771956,4.929493460479378
1684108717721829000,2.8668291015625,0.5537362908005714,-5.342051348307728,4.300162122729421
1684108717731847200,2.87684716796875,-0.2724894919246435,-4.027556895470619,2.432014381200075
1684108717741864200,2.8868642578125,-0.10833470251262187,-2.5720290010899305,1.557638023290038
1684108717751882200,2.89688232421875,0.05149111778438091,-0.9717302322030067,0.2058878987699747
1684108717761900300,2.906900390625,0.21658815648257732,0.5357505522549152,-1.1935226793304086
1684108717771917000,2.9169169921875,0.3893786722928285,1.5464736551970242,-1.264405018544197
1684108717781935000,2.92693505859375,-0.1020242041915655,2.377556230303645,-0.9091524877369404
1684108717791953200,2.936953125,-1.5461416467636824,2.6375942369341847,-0.8380360475063323
1684108717801970200,2.94697021484375,-1.8455922108501195,2.715875746488571,-0.594742839449644
1684108717811988200,2.95698828125,-1.0242045158058404,2.4502917961686848,0.4226704087808728
1684108717822006300,2.96700634765625,0.020828268495202064,1.8161784848392009,0.8455605977922678
1684108717832023000,2.97702294921875,-0.8360469195157288,0.9999521180808544,0.5958630756512284
1684108717842041300,2.987041259765625,2.5276795717537404,1.0781664076179265,-0.33612025257498024
1684108717852059100,2.99705908203125,0.7876806557536125,0.17903204054832458,-0.18861089301556347
1684108717862076200,3.007076171875,0.05034603940248489,0.3219330295294523,0.8242094744667411
1684108717872094200,3.01709423828125,-0.6397708986997604,0.1332429337978363,1.2858885360777377
1684108717882112300,3.0271123046875,-1.10727267511487,-0.13311784611344338,0.5323331450268626
1684108717892129300,3.03712939453125,-0.4652162958264351,-0.3959545435518026,-0.5184022348299622
1684108717902147300,3.047147216796875,-0.5419131665378809,-0.46837446759641166,-1.56946786955446
1684108717912165000,3.0571650390625,-0.7145856089264154,-0.6622194618731737,-2.082581058065593
1684108717922182400,3.067182373046875,-0.006435001483559608,-1.470159646323323,-1.1768293186828493
1684108717932200200,3.0772001953125,1.6413801363378762,-2.5409224996864794,0.5996326573178172
1684108717942218200,3.08721826171875,2.398575052934885,-3.0037592069000003,1.4745596348479388
1684108717952236300,3.097236328125,2.308871985656023,-3.0608915454417467,0.2095098886594176
1684108717962253000,3.107253173828125,2.194673944067955,-2.890912579920888,-0.6427987220883369
1684108717972271000,3.11727099609375,0.716197720298171,-2.2426854030430317,-0.3500003093674779
1684108717982289400,3.127289306640625,-0.4609270741999149,-1.9894237586796282,0.0810384070470929
1684108717992306200,3.13730615234375,-1.345460084465146,-1.8060908060669898,0.4356435798615217
1684108718002324200,3.14732421875,-2.7642116151124236,-1.3466776435613632,-0.2708674436807632
1684108718012342300,3.15734228515625,-2.7609131580889223,-1.1127344476521015,-1.1909765019789338
1684108718022359000,3.167359130859375,-1.0457388867437838,-1.3198977731853723,-1.5489233864367007
1684108718032377300,3.17737744140625,0.7466396203130483,-1.5687848557263613,-0.49901510505378244
1684108718042395100,3.18739501953125,1.9368541980087757,-0.799914114382863,1.263442603252828
1684108718052412200,3.197412109375,7.85025698878467,5.9442649620294565,2.3083193202093244
1684108718062430200,3.20743017578125,-0.11783844391703605,2.9403911888390777,-2.7802400821104643
1684108718072448300,3.2174482421875,-2.73952608666718,0.008609422913193701,-2.0525331258043646
1684108718082465300,3.22746533203125,-1.8760364489525556,0.30738194160759447,-2.964626343168318
1684108718092483300,3.2374833984375,-1.774666909277439,-0.8872405156582593,-1.3233476213783024
1684108718102501000,3.247501220703125,-0.3258037334829569,-1.414621883496642,1.2447767734885216
1684108718112518400,3.257518310546875,0.928482042106986,-1.584803678113222,1.823916385614872
1684108718122536200,3.2675361328125,1.121144548600912,-0.7903010673850774,1.8267460560828446
1684108718132554200,3.27755419921875,0.19473171398341654,0.29140929645001884,0.8268909686356782
1684108718142571300,3.2875712890625,-0.8183101872950792,2.249057276162505,-0.17049743643701076
1684108718152589300,3.29758935546875,-1.3760399316459893,3.048865592083335,-0.20353227555453776
1684108718162607000,3.307607177734375,-1.3421265561282634,3.1535382649570702,0.5640352742359042
1684108718172624100,3.3176240234375,-1.04880470405519,2.8652018000811337,1.1202271414950489
1684108718182642200,3.32764208984375,0.001969254246354103,1.959936967432499,-0.1450429694458842
1684108718192660000,3.337659912109375,0.7171697802007198,0.9643693480461836,-1.5392673770800231
1684108718202677200,3.34767724609375,0.26055647754669187,0.44345454587340355,-1.453665607640147
1684108718212695000,3.357695068359375,-0.03611877660751343,-0.20666297479569912,-0.8658379544064402
1684108718222713300,3.36771337890625,0.8296545881301164,-0.7904051122814416,-0.0797603499352932
1684108718232730000,3.377730224609375,0.98612174564898,-1.0829518883287905,0.7363216399163007
1684108718242748200,3.387748046875,0.33565058923661706,-0.8714040641009807,0.3752084003821015
1684108718252766200,3.39776611328125,0.03356090881824493,-0.10842764149308204,-0.24401100093722342
1684108718262783200,3.407783203125,-0.02944353662729263,0.5711176337122917,-0.6196282743811607
1684108718272801300,3.41780126953125,0.26428631172478195,1.022497127366066,-0.6225152279943228
1684108718282819300,3.4278193359375,0.41778643613159655,1.1697943054795263,-0.2180868706077337
1684108718292836000,3.437836181640625,0.3394073114216328,1.1116630190283059,-0.8516951550245284
1684108718302854400,3.4478544921875,0.5251385573476552,0.9471452415227889,-1.7923802606225012
1684108718312872200,3.4578720703125,1.0196259558439253,0.7009393608897924,-2.1727587571188804
1684108718322889200,3.46788916015625,1.7077607802182435,0.4076145862072706,-3.026955081309378
1684108718332907300,3.4779072265625,0.7274263857990503,0.36962241694331166,-4.2123081904485815
1684108718342925300,3.48792529296875,-0.3740770582646131,0.2632616448521614,-4.322370447406173
1684108718352943000,3.497943115234375,-0.392130601349473,-0.16826456281840801,-5.310533928015828
1684108718362960100,3.507960205078125,6.033586921036243,-3.5671284184426066,-6.103603291070461
1684108718372978200,3.517978271484375,6.6379135813891885,-2.0198867014825344,-1.828086364775896
1684108718382996200,3.527996337890625,-7.596643462243676,-3.1160441083431243,9.832153859090804
1684108718393013200,3.53801318359375,-13.719165973317622,-1.9894868870437143,12.963743911612033
1684108718403031000,3.548031005859375,-6.371384459173679,-1.5168921714037655,8.61410960970521
1684108718413049300,3.55804931640625,1.4135171371251345,-1.3426023569464682,5.164850614839792
1684108718423066000,3.568066162109375,1.4244500345498323,-0.7718488803714514,4.331823919928073
1684108718433084200,3.578084228515625,-0.05799801546037197,0.7247983753830194,2.0685914034187793
1684108718443102200,3.588102294921875,-0.2079004076361656,1.440189455473423,-1.8457208056658505
1684108718453119200,3.598119140625,-1.233169922325015,1.4627712896376848,-5.2151972387641665
1684108718463137000,3.608136962890625,1.0759960778415203,2.190218133702874,-6.130332308042049
1684108718473155300,3.6181552734375,3.0985832704544065,1.8881518341600894,-2.3539923993647096
1684108718483172000,3.628172119140625,3.3030613024264572,1.4643798938781023,1.3949176505953074
1684108718493190400,3.6381904296875,0.37358430631160733,1.6259715548038483,2.337234741309285
1684108718503208200,3.648208251953125,-2.2683178569495674,0.986882793149352,2.8047721735596656
1684108718513225200,3.65822509765625,-1.9315543380349873,1.2477461446881293,-0.14983224954903124
1684108718523243300,3.6682431640625,-0.20421967329680918,0.3918506153643131,3.2054204278856515
1684108718533261300,3.67826123046875,-1.201524491739273,-1.2296098917558789,5.549346775788068
1684108718543278300,3.6882783203125,-0.4348246646940708,-1.6133061344981192,6.793762314748764
1684108718553294800,3.698294921875,0.3261982857584953,-1.5336644425064325,7.424338684123754
1684108718563313000,3.70831298828125,-1.189195171520114,-0.9701675129309296,8.220858479893208
1684108718573330000,3.718329833984375,-2.667551568302512,0.6125684189975261,6.124767659652233
1684108718583347700,3.72834765625,-2.826355059814453,1.956294227015972,3.72109732940495
1684108718593366000,3.738365966796875,-2.2506331471771,2.358217908105254,2.1115753896206617
1684108718603382800,3.7483828125,-2.3952222353756425,2.557643332862854,1.0669909336090087
1684108718613400800,3.75840087890625,-2.5000953992575408,2.9857857433140276,-1.6356266873776912
1684108718623419000,3.7684189453125,-0.8524071026861667,3.23470439003706,-4.543895475769043
1684108718633436000,3.778435791015625,1.7012421921044587,3.4132749505534767,-6.501327182382345
1684108718643454000,3.788453857421875,4.8633524705737825,3.5343490153908728,-9.254984670254588
1684108718653472000,3.798471923828125,4.5020103907197715,2.5843931003615257,-9.01595964103639
1684108718663489800,3.80848974609375,-1.6402455793499946,0.08067951060682535,-4.948230894175172
1684108718673507000,3.818507080078125,-3.5543186212301254,-1.7800462642282247,-1.9821274641916156
1684108718683524900,3.82852490234375,-0.9367167864888906,-2.762871890941262,1.1544894765809177
1684108718693543000,3.83854296875,1.5930845997244119,-2.9583327959820624,3.9058717129975555
1684108718703560000,3.848559814453125,0.9131921185165643,-2.3404449355274437,2.2872905607059595
1684108718713578000,3.858577880859375,-0.22828093236386773,-0.9474509464710951,-1.7013371769115329
1684108718723595800,3.868595703125,1.143427692079544,0.2696758958086371,-3.5887829086288807
1684108718733613000,3.878613037109375,1.4432844988793134,0.3134612615212798,-3.507894139185548
1684108718743630800,3.888630859375,-0.7233721419721841,2.09196789509207,-2.6943019203230736
1684108718753649000,3.89864892578125,1.2299743411540984,2.3572522779434917,-0.2070490515038371
1684108718763666000,3.908666015625,1.4762848512053488,-0.004351180946826934,-1.2233110838726162
1684108718773684000,3.91868408203125,0.52130643183887,-1.5836878258258102,-1.7427835782825947
1684108718783701000,3.928700927734375,0.4860767130255699,-2.539086224170029,-2.1918954192653297
1684108718793718800,3.93871875,-0.8709948987782001,-2.2488585387200115,-3.757863464005291
1684108718803736800,3.94873681640625,-1.945689830893278,-2.1423393611967563,-3.8122783602818844
1684108718813753900,3.95875390625,-1.8762936385840177,-1.927586018925905,-3.179111682152748
1684108718823772000,3.96877197265625,-0.9132488171398639,-3.4929292097657916,-2.178731401787698
1684108718833790000,3.9787900390625,1.0315186382114887,-3.929074893930554,0.7756997105807065
1684108718843807000,3.988806884765625,0.17406185092031956,-0.6538602143287658,-0.4569076094254851
1684108718853824800,3.99882470703125,-2.214821244561672,4.265742843516171,-3.941813087211549
1684108718863843000,4.008843017578125,0.11611819599568843,2.7805323430553077,-0.5906546933531761
1684108718873859800,4.01885986328125,0.6779694041907787,1.067678623612225,4.33181222949028
1684108718883878000,4.0288779296875,1.9980372732460498,1.727042403793335,3.6963600707724686
1684108718893896000,4.03889599609375,2.8840087918817994,3.176830585478246,1.3966893364429473
1684108718903913000,4.048912841796875,1.5883447117209433,3.551821835978329,0.6767410314396023
1684108718913931000,4.058930908203125,-0.2906920880913734,2.901341034954786,1.9252046767473219
1684108718923949000,4.068948974609375,-2.145784533214569,2.161415233066678,2.8738682138785716
1684108718933965800,4.0789658203125,-2.2288637984395026,1.2854592047497628,2.269921200492978
1684108718943983900,4.08898388671875,-1.5464952825069427,1.1988731004476547,1.020854036334157
1684108718954002000,4.099001953125,-0.8536047880381346,1.0732935408845543,1.1502829648017883
1684108718964019000,4.10901904296875,-0.2655401111781597,0.8720859088853001,2.1964777786195278
1684108718974037000,4.119037109375,-0.23741759402155874,0.680496000058949,3.6430513821721076
1684108718984054800,4.1290546875,0.33612463648915286,0.617165975920856,4.013759256264567
1684108718994072800,4.13907275390625,0.6443406908333301,1.008529976812005,3.779954592043161
1684108719004089900,4.14908984375,-0.12943302012085914,1.300078973993659,3.680895082876086
1684108719014108000,4.15910791015625,-1.001166754567623,1.3746888092979788,3.0484593493700025
1684108719024125700,4.169125732421875,0.1697282056301832,2.0080650385245677,1.6779314591437577
1684108719034143000,4.17914306640625,1.5263409677505493,2.516900111325085,0.6799918499290942
1684108719044160800,4.189160888671875,1.2158639827370643,2.529947808946669,0.5436901130825281
1684108719054179000,4.199178955078125,-0.5490238753259181,2.375144492986798,0.27144904296100136
1684108719064195800,4.20919580078125,-1.270391691738367,2.463508712877333,-1.022666638714075
1684108719074214000,4.2192138671875,-1.272210139337182,3.8170664713412523,-0.19331249483525753
1684108719084232000,4.22923193359375,-10.148158083093167,0.8652107624188065,-2.5614114532247183
1684108719094249000,4.2392490234375,-10.414241799628734,0.6565969458162784,-2.541599668295681
1684108719104267000,4.24926708984375,-1.4911445666849612,2.9640047041386364,-1.988048086412251
1684108719114285000,4.25928515625,8.80452287596762,0.6379498207524419,-3.198925512908399
1684108719124301800,4.2693017578125,11.52497367528677,-4.240947132694721,-5.135896323034167
1684108719134320000,4.279320068359375,7.295572603479028,-4.414320124568045,-4.662495259447396
1684108719144338000,4.289337890625,0.3253501444965601,-2.3144281584784387,-2.7240087840616702
1684108719154356000,4.29935595703125,-4.443228531405329,-1.8196923381790517,-0.6511249441459774
1684108719164373000,4.309373046875,-4.667515425696969,-2.6086937211424113,1.8142048466786742
1684108719174391000,4.31939111328125,-2.952697712704539,-1.996233438694477,3.751554426988959
1684108719184408800,4.329408935546875,-1.9552818351030348,-0.6911737536787986,3.646417351473868
1684108719194425900,4.33942578125,-0.5389005407184362,-0.8868424562513828,2.262004143758118
1684108719204444000,4.34944384765625,1.6017700104832648,-1.2531745994776486,0.8288038165196776
1684108719214461700,4.359461669921875,2.740996159219742,-0.9059691815257072,-0.25947072813659905
1684108719224479000,4.36947900390625,1.8131483233630656,0.41156098574548955,-0.7289975806385278
1684108719234496800,4.379496826171875,0.43108840077519417,0.251682558478415,-1.2257295431911945
1684108719244514800,4.389514892578125,-0.5094967515796422,-1.650802336938679,-1.2255293444439768
1684108719254532900,4.399532958984375,-1.1751947032183407,-2.1914748557657,-0.4457686680346727
1684108719264550000,4.4095498046875,-0.4892734632402658,-1.5901049993917344,-0.09991232660412788
1684108719274568000,4.41956787109375,0.006783961051702499,-0.37894671012759207,-0.08218027055859566
1684108719284586000,4.4295859375,0.3896621654093265,-0.42916853862851856,0.05265314730107784
1684108719294602800,4.439602783203125,0.2506178518563509,-0.6386328345805407,0.12950374726951122
1684108719304621000,4.44962109375,-0.03993745811283588,-0.5155018372133374,0.21362024658769369
1684108719314638800,4.459638916015625,-0.04662088139951229,-0.1641492364540696,-0.0012608137160539626
1684108719324656000,4.46965625,-0.04973287594020366,-0.005639467191696166,-0.1719511423766613
1684108719334674000,4.479673828125,-0.6483066718548536,-0.4306964788481593,-0.2559033910438418
1684108719344692000,4.48969189453125,-0.9864321267724037,-0.8431544134333729,-0.33524054713100193
1684108719354709000,4.499708984375,-0.3315326325237751,-1.2098007371753454,-0.5690130626484752
1684108719364727000,4.50972705078125,-0.28460137000083924,-0.8631967922478914,-0.7408160287261009
1684108719374744800,4.519744873046875,-0.9900818814516067,-1.6703306287512183,-0.5712006358206272
1684108719384761900,4.529761962890625,-1.5888748730748892,-3.0168104116529224,-0.3606485446318984
1684108719394780000,4.53977978515625,-2.4388415968716144,-4.088780302718281,1.54002871684134
1684108719404798000,4.5497978515625,-1.4534826522886752,-2.883727929113805,4.6891135095208885
1684108719414815000,4.55981494140625,1.5225193636357783,1.5634414488717914,6.66430065305531
1684108719424832800,4.569832763671875,5.007843359094858,7.185729834491014,1.518157661294937
1684108719434850800,4.579850830078125,5.279726117298007,10.517247416073083,-12.187166833674906
1684108719444867800,4.589867919921875,0.7520774274528026,5.544668262583017,1.5966007911518216
1684108719454886000,4.599885986328125,-0.10060732313096522,5.271034276798368,2.09829066837281
1684108719464904000,4.609904052734375,-0.06468377683460712,3.368299206012487,0.2668956174403429
1684108719474921000,4.6199208984375,1.103716443938017,2.500667646187544,-2.4357626278176903
1684108719484938800,4.629938720703125,0.6859136411935091,3.1126117958068846,-5.618109930890798
1684108719494957000,4.63995703125,-0.9487737195074558,3.5820842877730725,-6.1296566007375715
1684108719504974800,4.649974853515625,-3.227726367717981,2.8773490417316556,-4.563166870211065
1684108719514991900,4.659991943359375,-3.3715029704898596,0.6801163530915976,-1.7066273922741413
1684108719525010000,4.670010009765625,-0.7955576727390289,-1.6598332001343368,1.1132117097750305
1684108719535028000,4.680028076171875,0.7894318833351135,-3.003711860626936,3.4706963351696727
1684108719545045000,4.690044921875,0.7452367677778006,-4.034499846476316,4.596980584746599
1684108719555063600,4.7000634765625,0.2888192799568176,-4.945854812693596,4.465172359926998
1684108719565081300,4.710081298828125,0.38315292964577674,-5.2970110140979285,3.6488463321864604
1684108719575098600,4.7200986328125,0.40583004087805746,-4.924490537625551,2.513200087763369
1684108719585116400,4.730116455078125,-0.4278630089879036,-3.3088442697420715,1.3926692871466277
1684108719595134500,4.740134521484375,-0.8828291289567947,-0.9856906607553362,0.46781332658231256
1684108719605151500,4.7501513671875,-0.2995668839424848,0.20476269413232803,-0.5582105136051774
1684108719615169500,4.76016943359375,-0.23414427143931388,-0.3573044949010014,-1.4024664585396647
1684108719625187300,4.770187255859375,-0.7032528985291719,-0.9480468665376305,-1.30210054294914
1684108719635204400,4.780204345703125,-0.5426432343780994,-0.6332122708365321,-0.3303144889056682
1684108719645222400,4.790222412109375,-0.4647954400658607,-0.9857745396465063,0.41116321859955784
1684108719655240200,4.800240234375,-0.06030629240274429,-1.7722589713528751,-0.32144875314384697
1684108719665257500,4.810257568359375,1.2878116130948065,1.2025497431337833,-1.044278166541457
1684108719675275300,4.820275146484375,1.5353016883194446,4.264654463757575,-0.6016647476673126
1684108719685293300,4.830293212890625,-0.32962942925095556,2.0077409211367367,-0.2546925539493561
1684108719695310300,4.840310302734375,-0.8040238877892494,0.0852712223112583,-1.1065449453622103
1684108719705328400,4.850328369140625,-0.822335205027461,-0.726856184695661,-1.6145917903944849
1684108719715346400,4.860346435546875,-0.61826809194386,-1.1588745597973464,-1.500026376798749
1684108719725363500,4.870363525390625,-0.05984042845666408,-1.882524057406187,-1.9501219681218265
1684108719735381200,4.88038134765625,0.3398392730981111,-2.6313006897479294,-2.0430144790917635
1684108719745399600,4.890399658203125,0.8219687098026275,-2.2829154143616557,-0.455402757820487
1684108719755416300,4.900416259765625,1.0220938072621821,-1.3604910648584365,2.36590057156235
1684108719765434600,4.9104345703125,0.40958500949740406,-1.4530349085211753,4.038114529842138
1684108719775452400,4.920452392578125,-0.26079730056524275,-1.7810449198767542,3.491927339246869
1684108719785470500,4.930470458984375,-0.5573994894832373,-1.842732437504828,2.142731575384736
1684108719795487500,4.940487548828125,-0.12717851919233797,-2.6209184119433164,0.5823679265230893
1684108719805505500,4.950505615234375,0.34666122807264327,-3.6252155734911558,-0.9009504765808581
1684108719815523300,4.9605234375,-0.19194179100394249,-4.4980677905738355,-1.2462670120462775
1684108719825540400,4.970540283203125,-0.7332511464297771,-4.899786012218892,-1.0618781206399202
1684108719835558400,4.980558349609375,-1.4536720373809338,-4.371128340834379,-0.8205079896003007
1684108719845576400,4.990576416015625,-1.1897311780929565,-2.460216393333673,-0.7589303620874881
1684108719855593500,5.000593505859375,-0.4630184935212135,0.07197744097411632,0.25212299572229385
1684108719865611300,5.010611328125,-0.29279402880668637,1.819521950048208,2.1133727944314478
1684108719875629300,5.02062939453125,-1.2197709270477295,0.9724272745564579,3.3191949833646412
1684108719885646300,5.030646240234375,-1.7854454929232597,0.8296922897920012,3.650508420179784
1684108719895664400,5.040664306640625,-2.058716490614414,0.8075076382517814,2.671480724444985
1684108719905682400,5.050682373046875,-1.4025672885656355,1.7735402433350682,0.07438245628923178
1684108719915699500,5.060699462890625,3.602894728350639,3.6901127008154986,-9.572426818105578
1684108719925717200,5.07071728515625,1.0498550898909569,2.2542373091489076,-10.451814866697788
1684108719935735600,5.080735595703125,-3.1421979557752606,5.67702213858664,4.209379151259363
1684108719945752300,5.09075244140625,0.12639116820693017,3.4226918904572723,5.382386865827441
1684108719955770400,5.100770263671875,0.8281669799208641,2.9677625953674314,2.09718036904335
1684108719965788400,5.110788330078125,0.6203086578607558,1.9409101954013108,-0.5707406170934438
1684108719975805400,5.120805419921875,0.6511626458078622,1.787753769865632,-2.4254499081179497
1684108719985823500,5.130823486328125,0.6201753868699074,1.755194439305365,-2.4455960395678877
1684108719995841500,5.140841552734375,0.030936405533552168,0.7484992767050862,-0.9046145520463585
1684108720005858300,5.1508583984375,-0.8089362097501754,-0.49304260651543735,0.27051848411262036
1684108720015876400,5.16087646484375,-1.7001164029449223,-1.4811121252313255,0.8999681875452399
1684108720025894400,5.170894287109375,-1.307732703617215,-1.3795795039489864,0.5207771472677588
1684108720035912400,5.180912353515625,-0.22646716094017028,-0.21650866150557993,-0.5083531345024704
1684108720045929500,5.190929443359375,0.9930138432502746,0.8424448038592934,-1.5129162535101175
1684108720055947300,5.200947265625,0.8409469665169715,1.6675367602489888,-0.7092492163345218
1684108720065965300,5.21096533203125,1.2096575293123721,1.3561115345999597,0.7238923664540052
1684108720075982300,5.220982421875,3.386885833060741,1.6181100276485085,2.3530998344391585
1684108720086000400,5.23100048828125,-0.4911164607584476,0.16449731923937796,4.254923927859962
1684108720096018400,5.241018310546875,-2.5810645404607055,0.7270793259270488,1.6143971446052192
1684108720106035500,5.251035400390625,-0.12397709280252456,0.92122900223881,-0.6381634635031223
1684108720116053200,5.26105322265625,0.3216746708542108,1.082325426993519,-0.37905776928663254
1684108720126071600,5.271071533203125,0.04742167638838291,0.995739103495702,-0.45049598881751296
1684108720136088300,5.28108837890625,-0.48392684151530263,0.19695530831702052,0.09536533082425594
1684108720146106400,5.2911064453125,-0.9504793543815612,0.5181841350998729,-0.14064298092126845
1684108720156124400,5.30112451171875,-0.10068798715174197,0.9947888170335442,-0.5151899947851896
1684108720166141400,5.311141357421875,0.36106150934696196,1.1608674141149968,-0.5052238965660333
1684108720176159500,5.321159423828125,0.444388027331233,1.6193271483533083,-1.2110349551454185
1684108720186177500,5.331177490234375,0.36643443455696106,1.7776998472325503,-0.8187585155844688
1684108720196194300,5.3411943359375,0.04112812920212745,1.6530843103960156,-0.9252470057085156
1684108720206212600,5.351212646484375,-0.6988461880028247,2.8596760223969815,-3.4888618141964076
1684108720216230400,5.36123046875,-0.725989046472311,2.375651127334684,-3.262367180727422
1684108720226247400,5.371247314453125,-0.484858569407463,1.40368752476722,-2.8769536126732826
1684108720236265500,5.381265380859375,0.20982816082835196,2.0234533079229293,-7.750696544358134
1684108720246283500,5.391283447265625,1.6689561255276202,3.4534231288075445,-3.0381100970521566
1684108720256300500,5.401300537109375,0.04805646716058254,-0.9404778925880789,-0.6830480226293206
1684108720266318300,5.411318359375,-1.4808254172444342,-6.8470239493370055,3.2558471313089132
1684108720276336400,5.42133642578125,-1.643755048775673,-5.0683916435599325,4.920750182053446
1684108720286354200,5.431354248046875,-0.9339934990048407,-1.5697214059241116,3.7914299257814883
1684108720296371500,5.441371337890625,-0.3844739491164684,-1.8853557737007736,1.6499661783754824
1684108720306389200,5.45138916015625,0.2797194431781769,-1.6790411739513278,0.8594529295444489
1684108720316407600,5.461407470703125,-0.5840688852220773,-2.0689172743722795,1.61566380354017
1684108720326424300,5.47142431640625,-0.7584732659697532,-1.730681783208996,3.273796337236464
1684108720336442400,5.4814423828125,-0.1349205116212368,-0.43002837032824753,2.7669220431149006
1684108720346460400,5.49146044921875,0.5080535670340061,0.1705497511461377,-1.283857030250132
1684108720356477400,5.5014775390625,-0.09102642483711242,0.31638883940577506,-3.1415570275232194
1684108720366495500,5.51149560546875,0.31243279525637624,-0.35165684440284967,-1.5851555602908134
1684108720376513500,5.521513427734375,1.297732703128457,-1.8983061484277248,-2.7498960895121094
1684108720386530300,5.5315302734375,-0.547394228297472,-1.5734826581537722,1.5261588891819118
1684108720396548600,5.541548583984375,-1.5576199031114577,-0.8100430019482969,5.773974446341395
1684108720406566400,5.55156640625,-0.3931055838614702,-0.4294138916917145,5.066537540125847
1684108720416583400,5.56158349609375,-0.07207973230481148,-1.239097997199744,2.1316092928677794
1684108720426601500,5.5716015625,0.007359715113043785,-2.2433481047354635,0.6481532348588108
1684108720436619500,5.58161962890625,-1.1785130339860916,-4.137576482330262,0.7887281189799308
1684108720446636500,5.591636474609375,-1.1851672311782837,-4.683360645082593,2.128016821333766
1684108720456654300,5.601654296875,-0.09210428320169449,-5.031982944095135,2.384990471957624
1684108720466672400,5.61167236328125,-0.20550971310734747,-5.151400181636214,1.8139485338300465
1684108720476689400,5.621689453125,0.4201847294449806,-0.43171267015337944,0.38805034629851576
1684108720486707500,5.63170751953125,-0.5551052410662174,4.4259155775547026,-1.4540952312290667
1684108720496725200,5.641725341796875,-0.6926414881438017,5.685391323003173,-3.0104525670588016
1684108720506743600,5.65174365234375,0.5302104537844657,4.876926237896084,-4.767788986828923
1684108720516760300,5.66176025390625,1.0344003311276435,3.777371589812636,-3.864199101655185
1684108720526778400,5.6717783203125,0.7345312493681907,2.383330137529969,-0.8290110295295715
1684108720536796400,5.68179638671875,0.07545359265208244,0.46733606445938347,-0.5911451072186231
1684108720546813400,5.6918134765625,-1.3376654850661753,0.4962577691696584,-1.6981746212273836
1684108720556831000,5.7018310546875,-1.7376771950542926,0.4421870101556182,-1.3308800627097486
1684108720566849000,5.71184912109375,-0.8747294091314077,0.2966604949764907,0.4052025566294789
1684108720576865800,5.72186572265625,-0.12333178063631058,-0.44913069181367754,1.4420923664852976
1684108720586884000,5.731884033203125,0.7568669998168945,-1.0081954841606318,1.7410031246066093
1684108720596902000,5.74190185546875,1.231420448309183,-1.2070996615231036,1.3986685275614261
1684108720606919000,5.7519189453125,0.7358522688388824,-0.9829632816180586,2.1751626033902167
1684108720616937000,5.76193701171875,0.02720364874601364,-0.16111162232384085,0.8643605753302573
1684108720626954800,5.771954833984375,-0.3342155879974365,0.4262193334341049,-0.5101520006179809
1684108720636972000,5.781971923828125,0.7469991012752055,0.4061649719208479,0.08741700216829776
1684108720646989800,5.79198974609375,0.4386585437685251,-0.5560359460450709,-1.8593460109144448
1684108720657007900,5.8020078125,0.48708793589472765,-1.275472063742578,-4.337249159847199
1684108720667025000,5.81202490234375,0.40740591189265246,-1.6372902366757391,-4.49337758693099
1684108720677043000,5.82204296875,-0.534471618360281,-1.321099257929623,-3.9885111255005
1684108720687060700,5.832060791015625,-2.1211188785135744,-1.068563370557502,-3.2472222185656427
1684108720697078000,5.842078125,-1.7253320927441118,1.1509724083706736,0.4286217184007168
1684108720707095800,5.852095703125,1.7114917834401129,0.5965369563248009,5.244565372067689
1684108720717113900,5.86211376953125,1.7607751620471477,0.20175547514036296,4.777188391076028
1684108720727132000,5.8721318359375,-1.5078198071539402,-0.7922138422038406,0.33514673136770723
1684108720737149000,5.88214892578125,-2.2285352971374985,0.026632369930390268,-3.199807848700881
1684108720747167000,5.8921669921875,-1.1050970846414565,1.0525243821654469,-4.0544989706709975
1684108720757185000,5.90218505859375,-0.03153729403614998,1.9755894407249985,-2.842328581754863
1684108720767201800,5.912201904296875,0.048534606066346166,1.8482818883255123,-2.267798801511526
1684108720777220000,5.92222021484375,-0.1976747816979885,1.8939175580799579,-2.330895016893744
1684108720787238000,5.93223779296875,-0.518275685840845,1.298573537866771,-2.203354970912635
1684108720797255000,5.9422548828125,-0.08909633355736732,1.0448560394946484,-2.1157085439026355
1684108720807273000,5.95227294921875,-0.5657838714689016,0.6665705697547644,-0.8598761233925819
1684108720817291000,5.962291015625,-0.06011807635426521,0.39451815407313406,2.224678329448402
1684108720827308000,5.97230810546875,0.7101379818677902,-0.17236951391920446,6.317463483893871
1684108720837325800,5.982325927734375,0.8438391808271407,-0.009574541618302464,6.728915456306934
1684108720847343900,5.99234375,1.0715145485132933,0.2968838554035872,4.603837318773567
1684108720857361000,6.00236083984375,1.7522797209024428,0.16792517479620872,2.7804022869348524
1684108720867379000,6.01237890625,1.039285765081644,-0.7944746267426759,-0.7022241400033236
1684108720877396700,6.022396728515625,-0.03679682199954987,-1.8101380356311798,-3.644971244318783
1684108720887414000,6.0324140625,-0.7806371669828891,-2.1326798447087407,-5.6100622335135935
1684108720897431800,6.042431884765625,-1.2662655517190695,-0.6902985052142292,-4.184449584925175
1684108720907449900,6.052449951171875,-0.5053928233921527,2.7151120686396957,-1.2089753922671078
1684108720917467000,6.062466796875,3.2565994109809395,4.3852398682951925,3.125798901899159
1684108720927485000,6.07248486328125,5.920049389183521,3.4875098150655623,6.86437898876369
1684108720937503000,6.0825029296875,2.488140173047781,-0.7749826483525335,6.3859168423950665
1684108720947521000,6.09252099609375,0.23415829996466636,-0.7384044375397264,1.398703891135752
1684108720957537800,6.102537841796875,-3.696328214329481,2.4025791740097104,-1.3096169099286197
1684108720967556000,6.11255615234375,-4.953252521729469,3.038583267521858,-0.45424467382654543
1684108720977574000,6.122573974609375,-2.2237574152112005,3.1791303868532177,-0.7871186379566788
1684108720987591000,6.1325908203125,0.5009925426065921,3.6140590964436528,-0.20212518523558973
1684108720997609000,6.14260888671875,1.6341525231719016,4.516237068992853,0.5423514118246734
1684108721007627000,6.152626953125,0.6964262673795223,5.5087891399502755,1.5971511185109615
1684108721017644000,6.16264404296875,-0.7170563829541206,6.429684672451019,2.516612818816304
1684108721027661800,6.172661865234375,-1.581213544666767,5.565977592593431,2.4670614369228483
1684108721037679900,6.182679931640625,-1.773087531131506,3.6321933035492897,1.2621001026026903
1684108721047697000,6.19269677734375,-1.1484604255497455,1.1584336841620504,-1.1089826939031482
1684108721057715000,6.20271484375,-0.17615385476350784,-2.3390897215262054,-2.1232596899345517
1684108721067732700,6.212732666015625,0.45056116300821303,-4.048792283461988,-3.20284970061481
1684108721077750000,6.22275,-0.26255554240942,-3.7373017374917863,-3.3914541638895868
1684108721087767800,6.232767822265625,-3.4308880563944575,-2.4791189544633028,-3.638781742028892
1684108721097785900,6.242785888671875,-2.1128227593332527,0.9211939309254288,-3.599998130126297
1684108721107804000,6.252803955078125,0.7380898186326027,1.784560819043219,-1.2145862178862095
1684108721117821000,6.262821044921875,3.0057062493145463,1.4335329201936722,-0.8047039790078997
1684108721127839000,6.2728388671875,2.0739193204432724,0.30448928890600796,-0.9585296821072697
1684108721137857000,6.28285693359375,0.534922869259119,-0.4953277583105489,-0.9878402400046586
1684108721147873800,6.292873779296875,0.6219383048892021,-0.979106094733253,-1.7190335771217942
1684108721157892000,6.30289208984375,-0.6141968969821929,-1.9317557058259844,-1.5244760506615043
1684108721167910000,6.312909912109375,-0.49482759023606776,-1.0860447397775947,-1.4514806648164986
1684108721177927000,6.322927001953125,-0.617661942744255,-0.597643638925068,-2.123286870202422
1684108721187945000,6.332945068359375,-0.6009890403628348,-0.9645768533170223,-2.2558581883490083
1684108721197963000,6.342962890625,0.17521978878378866,-1.5197800017997622,-1.0478221227586269
1684108721207980000,6.35297998046875,0.6671843908041715,-1.360556385179609,-0.012302432212233544
1684108721217998000,6.362998046875,0.7920540485322475,-2.4109593182116744,2.302321833360195
1684108721228015900,6.373015869140625,0.8587216926604508,-3.8623371071755885,4.7638393724203105
1684108721238033000,6.383032958984375,0.16763152561187744,-3.3352485848039386,5.46629615213573
1684108721248051000,6.393051025390625,-0.005658171892166137,-2.6547891173630953,5.782985435792804
1684108721258068700,6.40306884765625,0.38260464811325073,-1.8544383651286362,3.4001322681248185
1684108721268086800,6.413086669921875,0.2621756031811237,-0.4406380636805668,-0.4939350253105163
1684108721278103800,6.423103759765625,-0.16786591888964175,0.2594050424892455,-0.49726212390661234
1684108721288121900,6.433121826171875,0.033628128835558886,0.9116673931673168,-0.022467852395772932
1684108721298140000,6.443139892578125,0.3510106554538011,1.2201098036132751,-0.5219990902781486
1684108721308157000,6.453156982421875,0.09700783733427525,0.31621275218650696,-0.532916205611825
1684108721318174700,6.4631748046875,-0.10150281066596507,-0.2468941916907206,-0.16411270383596419
1684108721328193000,6.473193115234375,-0.1402718095213175,-0.3639971609400585,0.12386720268726348
1684108721338209800,6.483209716796875,0.0871539673179388,0.39471309212334454,0.1713058302104473
1684108721348228000,6.49322802734375,-0.005838204634189605,0.9064009970717132,-0.15896423503160476
1684108721358246000,6.503245849609375,0.09536123917102814,0.56384252814278,0.11306173103451728
1684108721368263000,6.513262939453125,0.05083879135549068,0.43886751034408805,0.015652327162027357
1684108721378281000,6.523281005859375,-0.05205635045170784,0.39481341069266196,0.11018939046859741
1684108721388299000,6.533299072265625,-0.06082300975322723,0.3452222813107073,0.10809504853785037
1684108721398316000,6.54331591796875,-0.09683891050815582,0.19073884495496748,-0.0019008651852607725
1684108721408334000,6.553333984375,-0.21080431238412856,0.05716872502937913,-0.16716098549067973
1684108721418351900,6.563351806640625,-0.32070962521433827,-0.045904586356319485,-0.33918519310355183
1684108721428370000,6.573369873046875,-0.3463531850367784,-0.14004903361611068,-0.4368453568667173
1684108721438387000,6.583386962890625,-0.17483809598982333,-0.2670146772427484,-0.4628910677492618
1684108721448405000,6.593405029296875,-0.029997663378715515,-0.3546093010002747,-0.45056993083655833
1684108721458422800,6.6034228515625,-0.0076268416166305536,-0.37948549317941066,-0.36680151430368424
1684108721468439800,6.613439697265625,-0.04811608839333057,-0.3491553464433178,-0.22089082211256025
1684108721478457900,6.623457763671875,-0.13112579551339149,-0.2706762684902176,-0.006347323200106621
1684108721488476000,6.633475830078125,-0.2179652900546789,-0.17854655858632176,0.1640507445156574
1684108721498493000,6.643492919921875,-0.2526251000255346,-0.0773739297227934,0.27673019823431966
1684108721508510700,6.6535107421875,-0.26951310646235943,-0.0043203108845278615,0.324076471298933
1684108721518529000,6.663529052734375,-0.308874810513854,-0.027667284202389418,0.30447803685963154
1684108721528545800,6.6735458984375,-0.3762310214281082,-0.05604494516383856,0.22812018884420393
1684108721538563800,6.683563720703125,-0.4140665388256311,-0.0612035335034132,0.13270575818121433
1684108721548581600,6.69358154296875,-0.3448813589185476,-0.09478161265216767,0.20292378826737403
1684108721558598400,6.703598388671875,-0.19200491936802863,-0.16651289684548973,0.29702772085368634
1684108721568616700,6.71361669921875,-0.06592062515318393,-0.1606286611124873,0.4461906928390264
1684108721578634500,6.723634521484375,0.029170564904808998,-0.11276972581800072,0.4857458736360073
1684108721588652500,6.733652587890625,0.045965632361173625,-0.04138816837780177,0.46461716088950633
1684108721598669600,6.743669677734375,0.15387012676298617,0.0050192894667387,0.49414253058135504
1684108721608687600,6.7536875,0.27260522725880143,0.04499682386163622,0.48121173733770845
1684108721618705400,6.763705322265625,0.21717852359116077,-0.030251820802874863,0.3450567154854536
1684108721628722400,6.773722412109375,0.08267302251160144,-0.17727120488826184,0.21332827790379522
1684108721638740500,6.783740478515625,-0.039245384195446965,-0.3161939013555646,-0.006655950757861137
1684108721648758500,6.793758544921875,-0.0702969405412674,-0.435560870014131,-0.15558686755299567
1684108721658775600,6.803775634765625,-0.08490881873965263,-0.4991774560086429,-0.20090017348527908
1684108721668793300,6.81379345703125,-0.052875850141048425,-0.554822295938991,-0.14466273795664308
1684108721678811600,6.823811767578125,-0.047833179798722265,-0.5531616692503913,-0.1023334162712097
1684108721688828400,6.833828369140625,-0.057064534002542494,-0.4879946024108678,0.010455927562713623
1684108721698846500,6.843846435546875,-0.017557284000515937,-0.38083475236389785,0.1489846928089857
1684108721708864500,6.853864501953125,0.0070376435518264766,-0.26876356673669066,0.32344986383318897
1684108721718882600,6.863882568359375,0.06868658273518086,-0.13922120448984204,0.5031096808910369
1684108721728899600,6.873899658203125,0.03302724033296108,-0.0634272374348715,0.5662964971661567
1684108721738917600,6.883917724609375,-0.1686965244948864,-0.0017182020947337149,0.524016275319457
1684108721748935400,6.893935302734375,-0.25516075598299504,0.07654091296475381,0.4178320288389921
1684108721758952700,6.90395263671875,-0.23196575835645197,0.1629515511021018,0.23685937561690806
1684108721768970500,6.913970458984375,-0.1726262651592493,0.21092806662796065,0.14645371302664278
1684108721778988500,6.923988525390625,-0.11667115370333193,0.27157643220033495,0.062039399805665016
1684108721789005600,6.934005615234375,-0.11088146438598633,0.29352409664690493,-0.02431494156718254
1684108721799023600,6.944023681640625,-0.04918400988578796,0.2924546773171052,-0.021481763967871666
1684108721809041400,6.95404150390625,-0.06096154144108295,0.24352511711642144,-0.14418226096332074
1684108721819058400,6.964058349609375,-0.10841010583639145,0.18907147799832746,-0.2228840417563915
1684108721829076500,6.974076416015625,-0.161563603875041,0.1450356446559541,-0.2564005269110203
1684108721839094500,6.984094482421875,-0.10765607259869575,0.19792669236613436,-0.2942576716184616
1684108721849112600,6.994112548828125,-0.23011165492236613,0.609266600973159,-0.520855180940032
1684108721859129300,7.00412939453125,0.022525720062851903,0.6741070296742022,-0.6363888550460338
1684108721869147600,7.014147705078125,-0.449621251809597,0.47557069924343376,-0.2608861478924751
1684108721879165700,7.024165771484375,-0.2283908224791288,0.3232036339871585,-0.07762158434092999
1684108721889182500,7.034182373046875,0.06964169150292873,0.29709695016499604,0.1454594412922859
1684108721899200500,7.044200439453125,-0.019347674548625945,0.2668791594958864,0.29113281759619714
1684108721909218600,7.054218505859375,-0.1234568683207035,0.27723493288606404,0.31520693614482875
1684108721919235600,7.064235595703125,-0.16242460461854935,0.22964875011835245,0.18201485575139523
1684108721929253600,7.074253662109375,-0.21033201869726179,-0.054614455702994016,0.059788406008481974
1684108721939271400,7.084271484375,0.039404958671331404,-0.5322551478872075,0.29613690949380395
1684108721949288700,7.094288818359375,0.3116717477560043,-0.6683106183551252,0.6713204676955938
1684108721959306500,7.104306396484375,0.27063948014378547,-0.2244103745408356,0.40651977670788764
1684108721969324500,7.114324462890625,0.12512743188142775,0.23184289916176348,-0.013298457512259483
1684108721979341600,7.124341552734375,-0.365955126607418,0.061621283991448575,-0.3587836275428533
1684108721989359600,7.134359619140625,-0.5703975027441978,-0.3371270915299654,-0.5820908631473779
1684108721999377400,7.14437744140625,-0.24672084441781042,-0.6585744564343243,-0.7906839292228222
1684108722009395700,7.154395751953125,-0.04371931473910808,-1.1285206303268671,-0.8887526737868785
1684108722019412500,7.16441259765625,0.3557143031001091,-0.739526500372216,-0.9047223963350057
1684108722029430500,7.174430419921875,0.5548381145626307,0.2608056300021708,-0.8856646446436643
1684108722039448600,7.184448486328125,0.09119535166323184,0.8646794320210814,-0.4486573752135038
1684108722049465600,7.194465576171875,-0.4366185623735189,0.8092370923928915,0.22560616019666194
1684108722059483600,7.204483642578125,-0.6559276682525873,0.37410051220543683,0.5680898103237152
1684108722069501700,7.214501708984375,-0.6304840149164199,0.2908591882865876,0.4882458737581968
1684108722079518500,7.2245185546875,-0.4920440969973802,0.5655960207466035,0.46740357673764227
1684108722089536500,7.23453662109375,-0.30589374887645243,0.870828163909167,0.48039691382348537
1684108722099554600,7.244554443359375,-0.7128373039543628,0.9642835694588721,0.08861585656404494
1684108722109571600,7.254571533203125,-1.4548358204632996,0.46842879159953443,-0.9121101684987545
1684108722119589600,7.264589599609375,-1.7065964126139879,-0.7782140314891934,-2.2828858960062264
1684108722129607400,7.274607421875,-1.2582704613119362,-1.81509828838706,-3.626939036282897
1684108722139625500,7.28462548828125,-0.4125777615725994,-2.21748344950825,-4.329449007490277
1684108722149642500,7.294642578125,0.32255729890763757,-2.157222457551956,-4.292588472604751
1684108722159660500,7.30466064453125,0.6267319689065217,-1.504768895150721,-3.82710388123095
1684108722169678300,7.31467822265625,0.4623264196038246,-0.7303262719590217,-2.8225363783091306
1684108722179695600,7.324695556640625,0.28185470164120197,-0.08137779506929219,-1.3564742304325104
1684108722189713400,7.33471337890625,0.5558388160377741,0.4695267063714564,0.46965632410049435
1684108722199731700,7.344731689453125,1.256215866869688,1.0311356302432715,1.7471294985324144
1684108722209748500,7.35474853515625,2.1132354317873716,1.5241767754539846,2.082867181530595
1684108722219766500,7.3647666015625,2.354454756179452,1.4438514851123094,2.200690427878499
1684108722229784600,7.37478466796875,2.044640034466982,1.0644348193854094,1.6589754142612219
1684108722239801600,7.384801513671875,0.962787047290802,0.9186671889267861,1.1775345443427563
1684108722249819400,7.3948193359375,-0.21733868258893488,0.8658657191962004,0.7449719793617725
1684108722259837700,7.404837646484375,-0.3640571840316057,0.8046423850137739,0.8969967705190182
1684108722269854500,7.4148544921875,0.1339829385101795,0.7496538535676897,1.2472381951659917
1684108722279872800,7.424872802734375,0.15212357535660265,0.7052534246966242,1.1949731703996658
1684108722289890600,7.434890625,-0.33121932879090304,0.7640470475140959,0.9800403799086809
1684108722299908600,7.44490869140625,-0.9483777059271931,0.7523639893092214,1.1474772597312926
1684108722309925600,7.454925537109375,-1.204704290819168,0.4953969876218587,1.1740297510921955
1684108722319943400,7.464943359375,-1.1955571077674627,0.27353196844859046,1.115558857423067
1684108722329961500,7.47496142578125,-1.0412418675854802,0.01496368731074035,1.0377876354783773
1684108722339978500,7.484978515625,-0.9341247241690754,-0.18592158086635172,0.9815075298517942
1684108722349996500,7.49499658203125,-0.9467115262806415,-0.26975378335043787,0.7617810753434896
1684108722360014300,7.505014404296875,-0.9367276001438498,-0.20061229645460843,0.5011655610859393
1684108722370031600,7.515031494140625,-0.9789420632779597,0.1151633794888854,0.477715711915493
1684108722380049400,7.52504931640625,-1.0157435614526271,0.5244499905616045,0.40647827565371986
1684108722390067500,7.5350673828125,-0.8941068942964077,0.8855993243224919,0.27104163120388985
1684108722400085500,7.54508544921875,-0.8032327374115585,1.016970034507662,0.22589783661961554
1684108722410102500,7.5551025390625,-0.8229521678820252,0.9288094474304467,0.1819756927847862
1684108722420120600,7.56512060546875,-0.7175412438616157,0.726660004536435,0.1930173112809658
1684108722430138600,7.575138671875,-0.5982604921817779,0.6060792031086981,0.4622609531521797
1684108722440155400,7.5851552734375,-0.3226680658057332,0.5090055339965969,0.95646836566329
1684108722450173700,7.595173583984375,0.02925502831786871,0.41582737448569385,1.0964642808526754
1684108722460191500,7.60519140625,0.29821459255069493,0.3704555432992056,1.340381758287549
1684108722470208800,7.615208740234375,0.4989899706125259,0.31660328587405384,1.1535410898149012
1684108722480226600,7.6252265625,0.6228966285273433,0.3395515421979129,0.5978460661619901
1684108722490244600,7.63524462890625,0.6751449944198131,0.28160686435997484,0.3482020277738571
1684108722500261600,7.64526171875,0.7339271459951996,0.13190138299576937,0.2933855649590492
1684108722510279700,7.65527978515625,0.8791676838397979,0.013990896755829452,0.09187515062093735
1684108722520297500,7.66529736328125,1.0355153066322207,-0.018699585903435945,-0.10668985791504383
1684108722530314500,7.675314453125,0.9999205538988113,0.18347791404128075,-0.3867448166579008
1684108722540332500,7.68533251953125,0.9188426916241645,0.48001536715999243,-0.6144377200007438
1684108722550351000,7.69535107421875,0.8834107282370328,0.7130993158914148,-0.9160393246412276
1684108722560369000,7.705368896484375,1.0843623396486044,0.7665801461882888,-1.111806811413169
1684108722570386000,7.715385986328125,1.160609713026881,0.751784362790361,-1.4514064305365084
1684108722580404000,7.725404052734375,1.0975853938370943,0.7478392053611577,-1.7253461212694643
1684108722590422300,7.73542236328125,1.0741428511902689,0.8028902806494385,-1.8848598068773745
1684108722600439000,7.74543896484375,1.0869883042380213,0.8140089829698205,-1.862588938358426
1684108722610456800,7.755456787109375,0.8287611464217305,0.7942311003103851,-1.7578899619996546
1684108722620475100,7.76547509765625,0.47777913254052395,0.6875768982306122,-1.5044225659310817
1684108722630492000,7.775491943359375,0.22778145840913055,0.6521073793120682,-1.2673995241850613
1684108722640510200,7.78551025390625,0.1228100948497653,0.6917173590362071,-1.0201029257059098
1684108722650528000,7.795528076171875,0.03498480414152145,0.7819630087591707,-0.9317980347871779
1684108722660545000,7.805544921875,-0.2624669873431325,0.8882459663737565,-0.8904588931828736
1684108722670563000,7.81556298828125,-0.671312576650083,0.8962460982821882,-0.6284148074269295
1684108722680581000,7.8255810546875,-0.9266884366884827,0.9148216194145381,-0.16960019533634185
1684108722690599000,7.835598876953125,-1.163728137308359,0.9303825419660657,0.5371206715643405
1684108722700616200,7.8456162109375,-1.1175298652350902,0.9396666492704302,1.3288888888925312
1684108722710634000,7.855634033203125,-0.9398094918072223,0.9952120108816772,2.045921306449175
1684108722720652000,7.865652099609375,-0.861238205526024,1.0339903620872646,2.4658587831348178
1684108722730669000,7.8756689453125,-0.9048996525980532,0.8399860125303268,2.593631761088967
1684108722740687000,7.88568701171875,-0.7313552496805786,0.38759317711554464,2.367185058414936
1684108722750705000,7.895704833984375,-0.4631973572194576,-0.16213775050118565,2.3314432984262705
1684108722760722000,7.905721923828125,-0.3832489373661577,-0.16367928085476158,2.137753786972165
1684108722770740000,7.915739990234375,-0.07925430010929703,0.7203507483243942,1.8518717295110225
1684108722780758000,7.925758056640625,0.09877470087632537,1.8577149025812745,1.8515046497642993
1684108722790776000,7.935776123046875,-0.08292743566408753,2.648784323990345,1.6991653858304023
1684108722800792800,7.945792724609375,0.19569909771084784,3.093352676324546,1.0403425806581974
1684108722810811100,7.95581103515625,1.3396835468903183,3.1425209041193125,0.10383037683069705
1684108722820829200,7.9658291015625,2.3380057256817817,2.619702898673713,-0.877045284858346
1684108722830846000,7.975845947265625,2.45302385148108,1.394164494140446,-1.7636983560174702
1684108722840864000,7.985864013671875,2.2868191438019276,-0.3475720593072474,-2.464963295599818
1684108722850882000,7.995882080078125,2.073411224790662,-2.274752858433127,-2.876433388191461
1684108722860899000,8.005899169921875,1.5339175404846668,-3.8069261855989693,-2.7925562505871055
1684108722870917000,8.015917236328125,0.7705883589163423,-4.6665573943197725,-2.302359242761135
1684108722880935000,8.025934814453125,-0.23741642497777937,-4.574780735637248,-2.30578103390336
1684108722890952200,8.0359521484375,-0.9504327387608588,-4.259975658291578,-2.3807243389457464
1684108722900970000,8.045969970703124,-1.3605914564929902,-4.00760862468034,-1.9692793807953595
1684108722910988000,8.055988037109374,-1.3804361207783222,-3.5327143999263644,-1.372853118303418
1684108722921006000,8.066006103515624,-1.2373404860079287,-2.9616233619600534,-0.710386403670907
1684108722931023000,8.076023193359376,-1.0576992275200783,-2.556132343778014,-0.0807405931442976
1684108722941041000,8.086041015625,-0.7611911466263234,-2.3867291323184965,0.4438385767549276
1684108722951059200,8.09605908203125,-0.3723134095929563,-2.276014256671071,0.7227133858025073
1684108722961076000,8.106075927734375,-0.28681086274385453,-2.1063629156693815,0.6086240652859211
1684108722971094000,8.116093994140625,-0.21778131178990004,-1.9036977783381939,0.13135668165981768
1684108722981112000,8.126112060546875,-0.14939692687168715,-1.8613593965634703,-0.5038800807416439
1684108722991128800,8.13612890625,-0.2409317396223545,-2.01354010893479,-0.9944891764998436
1684108723001147100,8.146147216796875,-0.3223442406788468,-2.20156005031988,-1.2540046205610036
1684108723011165200,8.156165283203125,0.022080752774327993,-2.2054580806717277,-1.079607254076004
1684108723021182000,8.166181884765624,1.101986113014072,-2.105724033243954,-0.4224608576834202
1684108723031200000,8.176199951171874,2.2335199536822734,-1.961475429046154,0.8607160813480615
1684108723041218000,8.186218017578126,1.8115024558521806,-1.3249334292650221,2.936897501504421
1684108723051236000,8.196236083984376,-0.6050342241004109,0.5496518710311502,4.284479400429129
1684108723061253000,8.206253173828125,-1.8901672656357287,2.8470027110457417,3.6058009711861607
1684108723071271000,8.21627099609375,-0.48434170592650766,4.163725945848226,2.3578140034794806
1684108723081289000,8.2262890625,1.1803824811197816,4.416109346072376,1.3656155682653188
1684108723091306000,8.236305908203125,0.4154360736131668,3.4852941848427057,0.41258243774771686
1684108723101324000,8.246323974609375,-1.4198304119251668,1.9273267834678292,-0.7653641945272683
1684108723111342000,8.256342041015625,-2.094489230263233,0.7393309047348797,-1.8685750270307062
1684108723121359000,8.266359130859374,-1.5964624055944383,-0.08901070110052824,-2.2839263449698683
1684108723131377000,8.276376953125,-0.34939664438590406,-0.6224646668508649,-1.6826976506322622
1684108723141395200,8.286395263671874,0.3558066575586796,-0.774543014826253,-0.4343453567445278
1684108723151412000,8.296411865234376,-0.2737107042826712,-0.37082733575366433,0.8141454688310623
1684108723161430000,8.306429931640626,-0.7723182514488697,0.5334525775108486,1.65377550753057
1684108723171448000,8.316447998046876,-0.3185726131856441,1.587403631478548,1.7562959708064794
1684108723181466000,8.326466064453125,0.2773218805171549,2.232584280267358,1.4478957920670508
1684108723191483100,8.336483154296875,0.5876577034942806,2.330516831231117,1.2274006912738085
1684108723201501200,8.346501220703125,0.7249497665524482,1.962894355933368,1.0915893682926892
1684108723211519000,8.35651904296875,0.7195641279913485,1.1937317189712078,0.897308320686221
1684108723221536000,8.366535888671875,0.5749801543593407,0.43280514156520367,0.5281260487258433
1684108723231554000,8.376553955078125,0.38332346390709277,0.02886383704319596,0.08562368901073932
1684108723241572000,8.386572021484374,0.057138183760643,-0.10759718201830983,-0.3567442306697368
1684108723251589000,8.396589111328124,-0.34431612625122066,-0.0966699836820364,-0.7973667679876089
1684108723261607000,8.40660693359375,-0.5863631336390972,0.07437105811238288,-1.1570768627256154
1684108723271625000,8.416625,-0.562211565940082,0.2540276602998376,-1.2551847702562808
1684108723281643300,8.426643310546876,-0.2662774855419993,0.31497853421643374,-1.1028162802278996
1684108723291660000,8.436659912109375,-0.1051018580712378,0.22133907733671365,-0.8824678944289683
1684108723301677800,8.446677734375,-0.2871827647961676,-0.05679667684659361,-0.6373381185948849
1684108723311696100,8.456696044921875,-0.3259469413459301,-0.3049316258460283,-0.2534697341561317
1684108723321713000,8.466712890625,0.03948080038651824,-0.4287849461384117,0.32393034082651134
1684108723331731200,8.476731201171875,0.3676582772634923,-0.4054164916411042,1.0146014056801795
1684108723341749000,8.4867490234375,0.31252251936644315,-0.2891508499987423,1.4374948095619677
1684108723351766000,8.49676611328125,0.05411737463474273,-0.14562595696561037,1.5172411309719085
1684108723361784000,8.5067841796875,-0.16088760430961846,-0.046596404545381664,1.3552116631507873
1684108723371802000,8.516802001953126,-0.25962007347941396,-0.08143537047542632,1.0525193406641482
1684108723381819100,8.526819091796876,-0.25071692831665277,-0.19252470545843242,0.685854019960761
1684108723391837200,8.536837158203125,-0.1835411885358393,-0.32034210707619787,0.2723947993785143
1684108723401855000,8.54685498046875,-0.13423545196652412,-0.5269052016939968,-0.21121464675068854
1684108723411873000,8.556873046875,-0.1892111969962716,-0.7365262225776911,-0.7997241447687149
1684108723421890000,8.56689013671875,-0.236290635818243,-0.8666706058382988,-1.385664084559679
1684108723431908000,8.576908203125,-0.15485972232222556,-0.8016679723128676,-1.9027584516614675
1684108723441926000,8.58692578125,0.009723667765408754,-0.587656461385265,-2.1873054611265657
1684108723451943000,8.59694287109375,-0.06749678842872381,-0.4990644240882247,-1.8521493774086235
1684108723461961000,8.6069609375,-0.34389994666576384,-0.7245199237678199,-0.895409793588519
1684108723471979300,8.616979248046874,-0.5433939066149294,-0.8857100912205874,0.053633975031971926
1684108723481996000,8.62699609375,-0.4912473936617374,-0.9095134300038218,0.6819862386167049
1684108723492013800,8.637013916015626,-0.3855903859257698,-0.8476950525376945,1.1764467491060495
1684108723502032100,8.6470322265625,-0.4493361512579024,-0.7486328399568796,1.4873101030886173
1684108723512050200,8.65705029296875,-0.3990788130521774,-0.5340476938597858,1.2571569471120834
1684108723522067000,8.66706689453125,-0.26428499655053017,-0.35157267325073477,0.6484422809332608
1684108723532085000,8.6770849609375,-0.10709507771506904,-0.20099545055329798,0.11166180110871791
1684108723542103000,8.68710302734375,-0.10039368038028477,-0.08140146820582449,-0.19813363138139248
1684108723552119800,8.697119873046875,-0.19624942506998777,-0.04668390016574412,-0.28397710062265397
1684108723562137900,8.707137939453125,-0.2616005797721445,-0.042848048329912125,-0.10495382790267467
1684108723572155600,8.71715576171875,-0.3020155922688544,-0.11308814411740749,0.16937047823369503
1684108723582173000,8.7271728515625,-0.33772155029177664,-0.1893403032686561,0.3126923229753971
1684108723592190700,8.737190673828126,-0.3167455438889563,-0.21536562895029782,0.2598720024138689
1684108723602208800,8.747208740234376,-0.35428120155707,-0.14584135328195988,0.0995803181707859
1684108723612226800,8.757226806640626,-0.4039198233425617,0.04586195279099047,-0.15583762744367122
1684108723622243800,8.767243896484375,-0.39369653549194333,0.1645245360398665,-0.2590606860309839
1684108723632261600,8.77726171875,-0.28806553898006676,0.26541765384227034,-0.15141513482630253
1684108723642280000,8.787280029296875,-0.16841157007366417,0.3738000679541379,0.12477204257249831
1684108723652296700,8.797296630859375,-0.09961422044038772,0.4678757608266547,0.5060895734846592
1684108723662315000,8.80731494140625,-0.11176350791752337,0.5422971243541688,0.7579729152321815
1684108723672332800,8.817332763671875,-0.08510989426970482,0.5746382455864921,0.8320113803893328
1684108723682349600,8.827349609375,0.01667085655480623,0.5599588916424661,0.7497282339781522
1684108723692368000,8.837367919921874,0.09494681315124034,0.450615925402753,0.4983715464532375
1684108723702386000,8.847385986328124,0.1049824694752693,0.18513609304446726,0.126563017642498
1684108723712403000,8.85740283203125,0.10730302137732506,-0.019558248559385538,-0.32644320043027397
1684108723722420700,8.867420654296875,0.11522563107013702,-0.1372043482420966,-0.660430240368843
1684108723732438800,8.877438720703125,0.15777210263758898,-0.10227832508310675,-0.8928601091057061
1684108723742456600,8.88745654296875,0.2072834447816014,0.038288375731557606,-0.9099299018502235
1684108723752473900,8.897473876953125,0.22948943137079475,0.2636338391654193,-0.7492869199514388
1684108723762491600,8.90749169921875,0.29940292555242776,0.4624372960997745,-0.4689309324353933
1684108723772509700,8.917509765625,0.33028409376740453,0.5291471719345078,-0.19511516034305096
1684108723782526700,8.927526611328124,0.387635920278728,0.5053005419988185,-0.05394610972106456
1684108723792544800,8.937544677734374,0.44913902125060556,0.3915711043031886,0.019804770666360855
1684108723802562800,8.947562744140624,0.5119134573325514,0.22315025494452564,0.02290858190059662
1684108723812579800,8.957579833984376,0.5456631667211651,0.022460034415498376,-0.011074936243891715
1684108723822597600,8.96759765625,0.5854471878379583,-0.07492796134278178,-0.026376550272107124
1684108723832616000,8.977615966796876,0.5671393777310848,0.01991356480307877,-0.0398801749676466
1684108723842633700,8.9876337890625,0.4862427172422409,0.1763972715979442,-0.11227028839588164
1684108723852651000,8.997651123046875,0.3640191901087761,0.2717754619037732,-0.17123334949612617
1684108723862668800,9.007668701171875,0.28266221863180396,0.22344576729238033,-0.22855624217391013
1684108723872686800,9.017686767578125,0.18161065886467695,0.01289784082211554,-0.33029636872708795
1684108723882704000,9.027703857421875,0.11946312250941991,-0.30795981456078586,-0.5152794266343117
1684108723892722000,9.037721923828125,0.13929711927026509,-0.5761655282190069,-0.6773661776006221
1684108723902739700,9.04773974609375,0.19001286876797674,-0.6616898850411176,-0.8541296886950731
1684108723912756700,9.0577568359375,0.19766805969625711,-0.4836402065936476,-1.0590414359092712
1684108723922774800,9.06777490234375,0.15434592758119106,-0.13571538832597435,-1.0211381139725446
1684108723932792800,9.077792724609376,0.09758505270034074,0.3884841346058994,-0.6985708781927824
1684108723942811000,9.087810791015626,-0.10382833100408315,0.9963330508008599,-0.1300397538423538
1684108723952827600,9.09782763671875,-0.30660014358013865,1.4304710484050214,0.5718249051988125
1684108723962845700,9.107845703125,-0.42518326838463544,1.4888666848808527,1.370346688440442
1684108723972863700,9.11786376953125,-0.4684928332790732,1.0742482112608849,2.020644826373458
1684108723982880800,9.127880859375,-0.3254077199026942,0.17974150399193167,2.274380517989397
1684108723992898800,9.13789892578125,-0.035612726781517265,-0.8982173983551561,1.9112620761126278
1684108724002916900,9.147916748046875,0.129453770647943,-1.660611637160927,1.3381781107634305
1684108724012933600,9.15793359375,0.19146774375140665,-2.0022440772861243,0.7877771018654107
1684108724022952000,9.167951904296874,0.06909574805796145,-1.9308768771648406,0.14695581732988355
1684108724032969700,9.1779697265625,-0.15185966372340917,-1.5266494491778313,-0.5818716674387454
1684108724042987800,9.18798779296875,-0.20887217527776955,-0.9688562842018902,-1.2911445569097995
1684108724053004800,9.1980048828125,0.040055239273607726,-0.41530261995922774,-1.803371025714278
1684108724063022800,9.20802294921875,0.3083481562912464,-0.0034253348061814904,-1.9964070416957138
1684108724073040600,9.21804052734375,0.30137013397216794,0.261056974414736,-1.967051767873764
1684108724083058000,9.228057861328125,0.2633747498378157,0.43352677037063986,-1.6711171029537915
1684108724093075700,9.23807568359375,0.24520021072179077,0.4954995346808806,-1.167228838905692
1684108724103093800,9.24809375,0.18808482331484555,0.44250813186876475,-0.4655979886204004
1684108724113110800,9.25811083984375,0.07028525010347365,0.2869456315720454,0.23039397899508474
1684108724123128800,9.26812890625,-0.06853139217346907,0.15460461504999548,0.8861030360609292
1684108724133147000,9.27814697265625,-0.14756167426854372,0.0840472700068727,1.5038824677050113
1684108724143165000,9.2881650390625,-0.11126973305121063,0.06681662414483726,1.8911282196223735
1684108724153181700,9.298181640625,-0.1448928934507072,0.10904076842274517,1.8116601306319235
1684108724163200000,9.308199951171876,-0.3125239806711674,0.18453714077062905,1.2296008316665887
1684108724173217800,9.3182177734375,-0.3850935423195362,0.1538723552526906,0.37105157296359537
1684108724183234800,9.32823486328125,-0.2639960966065526,0.06836531489156186,-0.4316173930853605
1684108724193252900,9.3382529296875,-0.15625585285574198,0.05476981066148728,-0.8975707710146903
1684108724203270700,9.348270751953125,-0.24115678054988382,0.03533789189551025,-0.9409487249702214
1684108724213288000,9.358287841796875,-0.3814554780781269,0.02628196732383221,-0.6926555166691541
1684108724223305700,9.3683056640625,-0.3425239821374416,0.04398885239548981,-0.3525982169061899
1684108724233323800,9.37832373046875,-0.1601850089982152,0.12475918309092521,-0.05622223795950412
1684108724243341600,9.388341552734374,-0.12294599618911742,0.25238694388810545,0.19867372960746288
1684108724253358800,9.39835888671875,-0.2579147308662534,0.4057845212358981,0.31832886755764483
1684108724263376600,9.408376708984376,-0.4139619094073772,0.5338954989727586,0.3241857768923044
1684108724273395000,9.41839501953125,-0.4933399820268154,0.5735183016458526,0.3132739222556352
1684108724283411700,9.42841162109375,-0.5456956076860427,0.41690077587086705,0.27225159151554107
1684108724293429800,9.4384296875,-0.5959317569732666,0.20249197272136807,0.1530763460367918
1684108724303447800,9.44844775390625,-0.5491895872816444,0.10691036879792809,-0.07132102289199829
1684108724313464800,9.45846484375,-0.3596297229781747,0.19099545006453988,-0.25728607757389543
1684108724323482600,9.468482666015625,-0.2106310016438365,0.24120018130019305,-0.23259528843164443
1684108724333501000,9.4785009765625,-0.1599757501617074,0.18843999342806636,0.06259528012275696
1684108724343518700,9.488518798828125,-0.26697014398127794,-0.04659476057756692,0.48238779537975784
1684108724353536000,9.498535888671874,-0.33149639216661453,-0.450770129583776,0.8492571142226457
1684108724363553800,9.5085537109375,-0.3382479122534394,-1.0722774957098067,1.0317992087185381
1684108724373571800,9.51857177734375,-0.36875615550279617,-1.7132209453202782,0.9752741884201764
1684108724383588900,9.5285888671875,-0.3375862334743142,-2.185158804486692,0.759286920440197
1684108724393607000,9.53860693359375,-0.079827862213552,-2.2370342454135415,0.6375386096030473
1684108724403624700,9.548624755859375,0.3466176811918616,-1.7686330359406768,0.6791378634482622
1684108724413641700,9.558641845703125,0.28046149371713397,-1.1403967268858104,0.9064256931215524
1684108724423659800,9.56865966796875,-0.03575520399212837,-0.5827281381376087,0.8808148665249347
1684108724433677600,9.578677490234375,0.3300070303916931,-0.15015567281711845,0.37825872786343095
1684108724443695900,9.58869580078125,0.5700406521305441,0.16956972713284194,-0.2816740843772888
1684108724453712600,9.598712646484374,0.19283231010288,0.4651543730387464,-0.8913695782870054
1684108724463730700,9.608730712890624,-0.3820306476175785,0.7696172488618641,-1.4253537053912877
1684108724473748700,9.618748779296874,-0.49675680473297834,1.069826668491587,-1.8232944543242453
1684108724483765800,9.628765869140626,-0.2879854594811797,1.2964454397968947,-1.7906167580813168
1684108724493783800,9.63878369140625,-0.114378951112926,1.193751958041638,-1.1576958714067935
1684108724503801900,9.6488017578125,0.09725947400778531,0.8897950224466621,-0.33934593662321566
1684108724513819600,9.658819580078125,0.2718912337705493,0.7198299393206834,0.24668109692931173
1684108724523837000,9.6688369140625,0.21818097863197325,0.7541008961044251,0.5961240646749735
1684108724533854700,9.678854736328125,0.18819822056144475,0.8583362004742026,0.7927759330660105
1684108724543872800,9.688872802734375,0.2060053876698017,0.9229881208658218,0.8882628444433212
1684108724553890000,9.69889013671875,0.19244594113379715,0.8000944393858314,0.8514917414069175
1684108724563907800,9.708907958984375,0.20565087514370678,0.5034307295389473,0.6966741046607494
1684108724573926000,9.71892578125,0.20372955169230697,0.21722773302774875,0.4657108013451099
1684108724583943000,9.72894287109375,0.18193945242762566,0.04678863918185234,0.19598492891490457
1684108724593961000,9.7389609375,0.2781915029585361,0.015119243198633192,-0.11882160973548889
1684108724603978800,9.748978759765626,0.4019301108300686,0.010555844273231923,-0.3354471756190061
1684108724613997000,9.7589970703125,0.4093041467294097,0.007628193323500454,-0.4706313066124916
1684108724624013800,9.769013916015625,0.38393122054189444,-0.02736322322189808,-0.6209381879359483
1684108724634032000,9.7790322265625,0.3402791258201003,-0.10822715048491954,-0.7655605938822031
1684108724644050000,9.7890498046875,0.15886895796358586,-0.2719199849409982,-0.771349698677659
1684108724654066700,9.799066650390625,0.04102203847914934,-0.4747818138880655,-0.5377320814609527
1684108724664085000,9.8090849609375,0.12836129923611878,-0.6131182349000126,-0.0769102212011814
1684108724674103000,9.81910302734375,0.1977025464877486,-0.6897352453082799,0.4955839615613222
1684108724684120000,9.8291201171875,0.11995616672337055,-0.638229222215712,0.9826543617993593
1684108724694137900,9.839137939453124,-0.149418700312078,-0.494296369436197,1.178057106912136
1684108724704156000,9.849156005859374,-0.16455343334078787,-0.34083723462689663,1.080605032941699
1684108724714173700,9.859173583984376,0.002921440404653549,-0.2297631702782586,0.8597849379777908
1684108724724191000,9.86919091796875,0.012314122650027274,-0.1510694997264072,0.45739247033298014
1684108724734208800,9.879208740234375,0.060114276961982245,-0.08343892885018139,-0.16116028377115726
1684108724744226800,9.889226806640625,0.13014964395761489,0.02945150073803961,-0.8211819433391093
1684108724754243800,9.899243896484375,-0.021608605217933653,0.0932966347914189,-1.3816601096153258
1684108724764262000,9.909261962890625,-0.38319852235317226,0.07244089376740157,-1.654814202928543
1684108724774280000,9.919280029296875,-0.5141121364206075,-0.0022512129928916693,-1.4824550642728804
1684108724784297000,9.929296875,-0.21806641234159468,-0.27763149445559826,-0.918819310748577
1684108724794314800,9.939314697265624,0.1179819440409541,-0.7196504911005497,-0.43215924487709995
1684108724804333000,9.9493330078125,0.23734394426345823,-1.0091533694073558,-0.4698585686743259
1684108724814350800,9.959350830078124,0.37005613218545913,-1.104738845788315,-0.671003072309494
1684108724824368000,9.9693681640625,0.6163026370897888,-0.9693903180133551,-0.6280944894313812
1684108724834386000,9.979385986328126,0.6605377923965454,-0.5104162775773555,-0.3722060036957264
1684108724844404000,9.989404052734375,0.40148061349689956,0.11940609509255737,0.04575637352466583
1684108724854421000,9.9994208984375,0.06181085174679756,0.7249507894657552,0.5889888059675693
1684108724864439000,10.00943896484375,-0.1452332313209772,1.1494980980344116,1.1586720229625702
1684108724874456800,10.019456787109375,-0.19161767361611126,1.3598498443454503,1.4273621226042508
1684108724884475000,10.029474853515625,-0.2504302203297615,1.3536379840932786,1.399720666962862
1684108724894492000,10.039491943359375,-0.3430336852252483,1.0500701939463615,1.0550783774971961
1684108724904510000,10.049510009765624,-0.3849158476650715,0.5473832319794223,0.40615152791738507
1684108724914528000,10.059528076171874,-0.18067922323346136,0.1681254831412807,-0.3250222277164459
1684108724924544800,10.069544677734376,0.0731789257183671,-0.02864416641052812,-0.8683242182642221
1684108724934562800,10.079562744140626,0.23194266974180935,-0.12149327663015573,-1.1878572009146213
1684108724944580900,10.089580810546876,0.277967923335731,-0.1619512149531394,-1.283287998190522
1684108724954598000,10.099597900390625,0.38283027356266974,-0.1450867355223745,-1.0857745445340872
1684108724964616000,10.109615966796875,0.44773076188787814,-0.0388176237700507,-0.6343547188699246
1684108724974634000,10.119634033203125,0.38145460129529235,0.06221274707857519,-0.10058218868970871
1684108724984651800,10.12965185546875,0.3297567088924348,0.09066372900456189,0.27090836021304127
1684108724994669000,10.1396689453125,0.29813159044235943,0.012134309103712439,0.42320144691765305
1684108725004686800,10.149686767578125,0.23198607049211858,-0.13232245795205236,0.4702922839164734
1684108725014705000,10.159704833984375,0.2639450970716774,-0.19925920134522018,0.4408715436428785
1684108725024722000,10.169721923828124,0.31506109793335196,-0.17578816325627267,0.31838848879039283
1684108725034740000,10.179739990234374,0.33534751463681456,-0.07409943809676915,0.12002455578446387
1684108725044757800,10.1897578125,0.3298313815638423,0.08802786407563835,-0.1394727680981159
1684108725054775000,10.199775146484376,0.25734423750191926,0.23202585451323537,-0.32224399517476554
1684108725064792800,10.209792724609375,0.1658303214088082,0.34635815347284077,-0.32733459631204603
1684108725074811000,10.219810791015625,0.0979236370049417,0.4125319496694952,-0.18645313045978545
1684108725084829000,10.229828857421875,0.0512999791264534,0.4532859483296051,-0.06728431472182274
1684108725094846000,10.239845947265625,-0.04345803345441818,0.4615265379304066,-0.11680968539118766
1684108725104864000,10.249864013671875,-0.1959080642864108,0.3254955077840015,-0.304913505667448
1684108725114882000,10.259882080078125,-0.33937311689108607,0.15809424726404248,-0.42666006293892855
1684108725124898800,10.26989892578125,-0.4056653518356383,0.03758457484375685,-0.3981131828904152
1684108725134917000,10.279917236328124,-0.3704369481965899,0.009200009217485785,-0.11919687278866767
1684108725144935000,10.289934814453124,-0.27312457495778797,0.0017057079393416642,0.35985505616664887
1684108725154953000,10.299952880859376,-0.17188129201084373,0.00486435463335365,0.8086275821924209
1684108725164970000,10.309969970703126,-0.18331337112933396,0.10334365275967866,1.0280144294828175
1684108725174988000,10.319988037109376,-0.26437603583484887,0.20080065863355992,0.9527303481787442
1684108725185005800,10.330005859375,-0.3471348369337618,0.2970307895936072,0.5976946749925613
1684108725195022800,10.34002294921875,-0.33515433015227314,0.3041093496777117,0.2551490655452013
1684108725205041000,10.350041015625,-0.34188889910429715,0.2040887403935194,0.029449381846189497
1684108725215058700,10.36005859375,-0.39550855334997176,0.013086166468448936,-0.04887187519669532
1684108725225076000,10.370075927734375,-0.2647852011576295,-0.17200816979352385,-0.16357202108800412
1684108725235093800,10.38009375,0.3050558367475867,-0.2561521781731397,-0.1421528009623289
1684108725245112000,10.390112060546874,0.8328352639928459,-0.324052213640511,0.341810865432024
1684108725255129900,10.4001298828125,-0.03685775840654969,-0.44906442164443433,1.001565983018279
1684108725265147000,10.41014697265625,-1.3700383531436324,-0.358033539827913,1.1724117945015429
1684108725275165000,10.4201650390625,-1.1083622239172457,0.10170125584751367,0.7479132935106754
1684108725285183000,10.430182861328126,0.2322799388721585,0.5253261158090085,0.5131774859189987
1684108725295199700,10.44019970703125,0.8131541197061538,0.7861187401991337,0.3795516902834177
1684108725305218000,10.450218017578125,0.3685946813307702,0.9207982826713472,-0.18274492359161376
1684108725315235800,10.46023583984375,-0.13633973076939582,0.7730773992531002,-0.908769041377306
1684108725325253000,10.470253173828125,-0.12771920194029807,0.5461729794068262,-1.3327677761524914
1684108725335271000,10.48027099609375,0.1834042642831802,0.3582819250984117,-1.41969845610857
1684108725345289000,10.4902890625,0.3734333535335958,0.23424345749747005,-1.3463660933941601
1684108725355306800,10.500306640625,0.15217092162966728,0.08927530685346573,-1.2269137845396996
1684108725365324000,10.510323974609374,-0.3139128046810627,-0.03864639538899064,-1.1482833154171705
1684108725375341800,10.520341796875,-0.7185444295547903,-0.154972169720754,-0.9437193587273359
1684108725385360100,10.530360107421876,-0.8460651863135397,-0.24347561541888862,-0.5689858823806047
1684108725395377000,10.540376953125,-0.762622348473221,-0.34743323535844683,0.06214636731147766
1684108725405395000,10.55039501953125,-0.5946187746785581,-0.49581444584894924,0.7664800468146801
1684108725415413000,10.5604130859375,-0.3754104988254606,-0.5894283664286136,1.4765911406755448
1684108725425431000,10.57043115234375,-0.21734642750397323,-0.5737754547446966,2.011852448108792
1684108725435447800,10.58044775390625,-0.17345350976362822,-0.511612465091981,2.151328723338246
1684108725445465900,10.5904658203125,-0.16734510988593101,-0.5091460019132122,1.9055851995199917
1684108725455484000,10.60048388671875,-0.1684988099656999,-0.5945949919441714,1.3828537033140658
1684108725465501000,10.6105009765625,-0.23251126341000197,-0.6681992669351399,0.72000412684381
1684108725475519000,10.62051904296875,-0.3515314644575119,-0.7072706828031688,0.05874386539161205
1684108725485536800,10.630536865234374,-0.3631552667558193,-0.7097604537922888,-0.44626375807523727
1684108725495554000,10.640553955078126,-0.3745674721300602,-0.71861712946482,-0.7727005287647247
1684108725505571800,10.65057177734375,-0.4328853671945631,-0.6690361561506987,-1.0127893878221512
1684108725515590000,10.66058984375,-0.39970074434280395,-0.5197685182144866,-1.1717413478940724
1684108725525608000,10.67060791015625,-0.3473696686029434,-0.298455488634482,-1.112064001044631
1684108725535625000,10.680625,-0.381763959505409,-0.08353800531048328,-0.7681330747187137
1684108725545642800,10.690642822265625,-0.44860915215760466,0.0057411374678835265,-0.2864636567413807
1684108725555660800,10.700660888671875,-0.42797421427741644,-0.03706902653705328,0.33440146595835685
1684108725565677800,10.710677734375,-0.29990766020417214,-0.16591767089869827,0.8451648764729499
1684108725575696000,10.72069580078125,-0.10428089707717299,-0.26783918190076944,1.010583402210474
1684108725585714000,10.7307138671875,0.05226794737577438,-0.27818686331603676,0.8360930967450141
1684108725595731700,10.740731689453124,0.039367695400863885,-0.2515194038059562,0.5381944382756948
1684108725605749000,10.7507490234375,-0.030373949345201254,-0.19813560414277015,0.2880442039310932
1684108725615766800,10.760766845703126,-0.06591872545704246,-0.1068308007556945,0.07159867078959942
1684108725625784800,10.770784912109375,-0.14053878989443183,-0.015611812488548456,-0.044018005424737924
1684108725635801900,10.7808017578125,-0.22696400454640386,0.055792943164147436,-0.008781856870651245
1684108725645820000,10.79081982421875,-0.26354703766480087,0.06662672759592533,0.06800795282125473
1684108725655837700,10.800837646484375,-0.24133403681293128,0.05086363353580236,0.08568857094049454
1684108725665854700,10.810854736328125,-0.2169302479185164,0.10622731843721121,0.03699614396393299
1684108725675872800,10.820872802734375,-0.1654325542628765,0.22432689750846474,-0.06558510958850383
1684108725685890600,10.830890625,-0.12246566532626747,0.3342849999718368,-0.12499182280302047
1684108725695908900,10.840908935546874,-0.0651028790295124,0.4157329742005095,-0.13818857350647448
1684108725705925600,10.850925537109376,-0.0038346097268164158,0.49297158710584044,-0.11190788482427597
1684108725715944000,10.86094384765625,0.08506415543183683,0.5276128385066986,-0.10641980880200862
1684108725725961700,10.870961669921876,0.2033725549481809,0.49028702419698234,-0.09805705412626266
1684108725735978800,10.880978759765625,0.35429493782147764,0.430497449144721,-0.007374328160285949
1684108725745996800,10.890996826171875,0.5517604606829584,0.3461903591578826,0.0980465327322483
1684108725756014800,10.901014892578125,0.731076725000143,0.2705594737101346,0.0763221921801567
1684108725766031600,10.911031494140625,0.6829167974650859,0.2081798456320539,-0.07571312037110328
1684108725776050000,10.9210498046875,0.3492858774878084,0.1872797905422747,-0.23594869051277637
1684108725786067700,10.931067626953125,0.05180281408205628,0.19437186769507825,-0.2296165648818016
1684108725796085800,10.941085693359375,-0.057611792621761554,0.2056433859569952,-0.10844809975922107
1684108725806102800,10.951102783203124,0.12439692564979195,0.12182554079182445,-0.020189970591664313
1684108725816120800,10.961120849609374,0.32373058047071096,-0.07816467824168503,0.05586567960679531
1684108725826138600,10.971138671875,0.36058673144206405,-0.27603487291391937,0.04722469251155853
1684108725836156000,10.981156005859376,0.3169992263890803,-0.3803411601606756,-0.015897241833806038
1684108725846173700,10.991173583984375,0.32910233663693067,-0.39174847016409037,-0.04172960222661495
1684108725856192000,11.00119189453125,0.4223299247801304,-0.3077359426770359,0.009196867412328719
1684108725866209800,11.011209716796875,0.47136780419349666,-0.2217802087003365,0.04492810600697994
1684108725876226800,11.021226806640625,0.3131285224355757,-0.17310623069591818,0.049992988181114195
1684108725886244900,11.031244873046875,0.04637830481529236,-0.15331979940384627,-0.015436638584733008
1684108725896263000,11.041262939453125,-0.06238499837294221,-0.144601363158226,-0.0940337899595499
1684108725906279700,11.05127978515625,-0.03835413444414735,-0.14020806010272352,-0.12612170361578465
1684108725916297700,11.061297607421874,-0.02056611042767763,-0.11620317086540162,-0.10755904196500778
1684108725926315800,11.071315673828124,-0.01097059908658266,-0.0662978244351223,-0.09087444914579391
1684108725936333800,11.081333740234374,0.03629515608772635,-0.03213697696235031,-0.05853285298943519
1684108725946350800,11.091350830078126,-0.004385229346901178,0.00015632307287305594,-0.004405541482567787
1684108725956368600,11.10136865234375,-0.08782426779493689,-0.0020948899200186133,-0.009164134186506271
1684108725966386700,11.11138671875,-0.1077495961010456,-0.01940693045519292,-0.015062544575333594
1684108725976403700,11.12140380859375,-0.15652327162027357,-0.04746840160693973,-0.010544190368056297
1684108725986421800,11.131421875,-0.2382733340680599,-0.06626797728613018,0.04065291290581226
1684108725996439800,11.141439697265625,-0.31504663101658226,-0.06217833335231989,0.09442892675697803
1684108726006456800,11.151456787109375,-0.34677243336215613,-0.05414327626097947,0.16569266650378703
1684108726016474600,11.161474609375,-0.4012181631684303,-0.011819361403025686,0.21090601919293403
1684108726026493000,11.171492919921874,-0.4668449199415743,0.08014635357819497,0.21828268544077872
1684108726036510700,11.1815107421875,-0.556112956804037,0.16622403343413025,0.28863223295211793
1684108726046527700,11.19152783203125,-0.6339047831453383,0.2395315905008465,0.33826106399595735
1684108726056545800,11.2015458984375,-0.6670749390803277,0.24591975716799497,0.35391280663609503
1684108726066563800,11.211563720703126,-0.6845337311424314,0.1435589049005881,0.34308044697642326
1684108726076580900,11.221580810546875,-0.5168753175236285,0.04590542660653591,0.34626433770954607
1684108726086599000,11.231598876953125,-0.11241656499877571,-0.09726265234556049,0.4482563931971788
1684108726096616700,11.24161669921875,0.01072466150149703,-0.21858283743113277,0.5885048218429089
1684108726106634800,11.251634765625,-0.16731617605239152,-0.31910266494173556,0.5358528435856104
1684108726116651800,11.26165185546875,-0.23413009678348898,-0.28423363266699014,0.3564326805025339
1684108726126669800,11.271669921875,-0.2903272003017366,-0.21452267532013355,0.18328969799280165
1684108726136687900,11.28168798828125,-0.3293662482701242,-0.174059585897997,-0.006553659427165985
1684108726146704600,11.29170458984375,-0.2245418919660151,-0.17582933551687746,-0.08760638726055621
1684108726156722700,11.30172265625,-0.16616320662498474,-0.1960708171000704,-0.041730771270394325
1684108726166741000,11.311740966796876,-0.0941080242395401,-0.24182101661227642,0.013137129470705985
1684108726176757800,11.3217578125,-0.0946738414287567,-0.28547395158428696,-0.09848960032463074
1684108726186775800,11.33177587890625,-0.22629078145995735,-0.34755857877116647,-0.3032850276827812
1684108726196793900,11.3417939453125,-0.29695465561747547,-0.40550731172971427,-0.42888709133863445
1684108726206812000,11.35181201171875,-0.19869637983068822,-0.46835616475474084,-0.4098451217383146
1684108726216829000,11.361828857421875,-0.15015768211111424,-0.5208699401177466,-0.32357436699569225
1684108726226846700,11.3718466796875,-0.21775646960958836,-0.5103605653347447,-0.21285656873881817
1684108726236864800,11.38186474609375,-0.2900397616624832,-0.38095742889549583,-0.1723959635347128
1684108726246881800,11.3918818359375,-0.2553577398598194,-0.18050061526354402,-0.07820084553360938
1684108726256899800,11.40189990234375,-0.08696779709607362,0.01362929690182209,0.04724398173391819
1684108726266917600,11.411917724609374,-0.024744126764684914,0.16441621682718396,0.16189678135216234
1684108726276936000,11.42193603515625,-0.09097045686617493,0.26187793540880083,0.23488486067354677
1684108726286952700,11.43195263671875,-0.07835530544295907,0.30797296630330384,0.24662907448112964
1684108726296970800,11.441970703125,-0.054047232007980346,0.3407835316782817,0.26693945658206936
1684108726306988800,11.45198876953125,-0.034640959139913316,0.32521026110183443,0.2701449746251106
1684108726317005800,11.462005859375,-0.07407265968769788,0.2739530251385644,0.22670681491494177
1684108726327023900,11.47202392578125,-0.04307239513769746,0.16406875509638338,0.18307810106873512
1684108726337042000,11.4820419921875,0.05346271011829376,0.10946034554168581,0.1382400114327669
1684108726347058700,11.49205859375,0.0766881028831005,0.15258395940996705,0.09593231705725193
1684108726357077000,11.502076904296874,0.08726575712934136,0.3025646044537425,0.049583238336443895
1684108726367094800,11.5120947265625,0.10527575333341956,0.4626673419959843,0.029676760861277577
1684108726377112800,11.52211279296875,0.0679037617944181,0.5962147751657292,0.042855975908041
1684108726387129900,11.5321298828125,0.0472258615553379,0.6321360199071466,0.05155015449523925
1684108726397148000,11.54214794921875,0.1179237841129303,0.5644739944467321,-0.013697101441025733
1684108726407165700,11.552165771484376,0.17763620227575302,0.43104598640557373,-0.059954410225152965
1684108726417182700,11.5621826171875,0.15934300521612166,0.26646022169776257,0.045153146934509274
1684108726427200800,11.57220068359375,-0.01891030604466796,0.09719419021923094,0.18407003471553324
1684108726437218800,11.58221875,-0.10491364202275871,0.029568880040012298,0.13984920019507407
1684108726447236900,11.59223681640625,-0.1566974591434002,0.06142842830047011,-0.13295827163755894
1684108726457253600,11.602253662109375,-0.2429834114551544,0.14762546021975576,-0.4550982219159603
1684108726467271700,11.612271728515625,-0.4291756990216672,0.10300612790100276,-0.6345639777064324
1684108726477289700,11.622289794921874,-0.621417057494074,-0.18293865606542675,-0.6109305886626243
1684108726487306800,11.632306640625,-0.4818799919880926,-0.5044425003973767,-0.4361766638249159
1684108726497324800,11.64232470703125,0.007521627676486968,-0.7647763116367161,-0.06111234808862209
1684108726507342800,11.6523427734375,0.24628230687007308,-0.8482673725329339,0.4720855970740318
1684108726517360600,11.662360595703126,0.12127762458547948,-0.5701753844261169,1.0537164414942264
1684108726527378000,11.6723779296875,0.19416385096758604,0.20090693201962856,1.3134703704863786
1684108726537395700,11.682395751953125,0.2757515624605119,0.9920233709082007,0.9335913479447364
1684108726547413800,11.692413818359375,0.013886924924701451,1.1156135102197526,-0.04651449841558933
1684108726557431000,11.70243115234375,0.03344868061542511,0.7922137691386043,-1.148254089322686
1684108726567448800,11.71244873046875,0.3375168945651501,0.19526823201291263,-1.7695453284800051
1684108726577467000,11.722466796875,0.35247838991880415,-0.513182454355061,-1.585732483395934
1684108726587484000,11.73248388671875,0.20045359876155852,-0.946073666768521,-0.6245066940724849
1684108726597502000,11.742501953125,-0.11736015888080001,-1.0165803045377135,0.6245405963420868
1684108726607519700,11.752519775390626,-0.343316739950329,-0.9185717657282948,1.6689350827395915
1684108726617538000,11.7625380859375,-0.2262777758479118,-0.7210442835465073,2.004525466221571
1684108726627554800,11.772554931640625,-0.15333280501589178,-0.5213413935543969,1.423144797170162
1684108726637573000,11.782572998046875,-0.3928257440067828,-0.3931144612876698,0.6053595105320215
1684108726647591000,11.7925908203125,-0.47007966407909985,-0.22372798176724462,0.06271218450069427
1684108726657608000,11.80260791015625,-0.25454540056362746,0.006604110972769558,-0.3243120336204767
1684108726667626000,11.8126259765625,-0.04948313896283507,0.22028452678248284,-0.6019950025349855
1684108726677644000,11.82264404296875,-0.08762932974472641,0.2711953239282593,-0.7319955934107303
1684108726687661800,11.832661865234375,-0.26355025253519415,0.10957538675609975,-0.6421843895822763
1684108726697679000,11.84267919921875,-0.430832234057039,-0.16901483319643884,-0.33107553640604015
1684108726707697000,11.85269677734375,-0.5638171014405786,-0.35333248599749056,0.04121814557313919
1684108726717715000,11.86271484375,-0.5645218887090683,-0.36007249830961224,0.17611352275311945
1684108726727732000,11.87273193359375,-0.5111855814494193,-0.25389453543946144,0.03496902205049991
1684108726737750000,11.88275,-0.5107881065644323,-0.14894253416769207,-0.09471417343914508
1684108726747767800,11.892767822265625,-0.5237072093702853,-0.0793053361767903,-0.06928864028155804
1684108726757786000,11.9027861328125,-0.4262064739525318,-0.049196796302124854,0.14166355614066123
1684108726767803000,11.912802978515625,-0.21995091091394423,-0.02959036121945828,0.3787105632841587
1684108726777821200,11.9228212890625,0.04942030285969376,-0.0407936000181362,0.534424856609106
1684108726787839000,11.9328388671875,0.2674503287136555,0.02489343557488173,0.5550169782608747
1684108726797855700,11.942855712890625,0.28186916855797167,0.147311206638813,0.4236468525975942
1684108726807874000,11.9528740234375,0.22471607948914168,0.24863296164944768,0.2924304561913013
1684108726817891800,11.962891845703124,0.1064426051557064,0.37169969814140347,0.2667605928838253
1684108726827909000,11.9729091796875,0.05787833460345864,0.44341147391665725,0.32711598512530327
1684108726837927000,11.982927001953126,0.3234324743069708,0.4529110871352255,0.36719723562300205
1684108726847945000,11.992945068359376,0.5868083931885659,0.47935719551220535,0.18705811061561106
1684108726857962800,12.002962646484375,0.5811491983830929,0.5456053355867043,-0.24049802438020704
1684108726867980000,12.01297998046875,0.34534123151525853,0.6201461607754231,-0.6773164932399988
1684108726877997800,12.022997802734375,0.12389525973796844,0.6217175748106092,-0.8906623068004846
1684108726888016000,12.033015869140625,0.12330240841135381,0.6007876725718378,-0.7603221087068319
1684108726898033000,12.043032958984375,0.07066270511373877,0.5039466431718319,-0.45894262238442896
1684108726908051000,12.053051025390625,-0.07664499439373612,0.3995796021811664,-0.21373276705145836
1684108726918069000,12.063069091796875,-0.10674655653834342,0.3102324722005054,-0.11758885307013987
1684108726928087000,12.073087158203125,-0.05358092967048287,0.22550357660502193,-0.08038403479158877
1684108726938103800,12.083103759765624,0.07596198056563734,0.08255089396927505,-0.010618424648046493
1684108726948122000,12.0931220703125,0.2421158348403871,-0.06613353725150227,0.01091477724611759
1684108726958140000,12.103139892578126,0.3321874431706965,-0.19028624234925953,-0.06978373032212257
1684108726968157000,12.113156982421875,0.29900515840649605,-0.22340338945537805,-0.13359013980031012
1684108726978175000,12.123175048828125,0.2526151631534099,-0.2612491725185886,-0.07208850013315678
1684108726988193000,12.133193115234375,0.2130431773521006,-0.306807868046686,0.0787234081029892
1684108726998210000,12.1432099609375,0.20397373571172356,-0.32780382125899193,0.22094401360452173
1684108727008228000,12.15322802734375,0.2723671807192266,-0.33378183622267094,0.21832944719195366
1684108727018246000,12.163245849609375,0.4684368653081357,-0.3504298598911613,0.0689671532422304
1684108727028264000,12.173263916015625,0.6292604644708335,-0.38033451122418044,-0.045616088271141046
1684108727038281000,12.183281005859374,0.48689855080246924,-0.438659895475395,-0.010875029757618903
1684108727048298800,12.193298828125,0.17298326190337537,-0.41959388741236175,0.07037818908393383
1684108727058317000,12.203317138671874,0.03413622448816895,-0.3152134754834697,0.12577566665709017
1684108727068335000,12.213335205078126,0.023765344860404727,-0.14430544895157218,0.12058920392990112
1684108727078352000,12.223351806640625,0.08983867635726928,0.030292737335152923,0.0659393298536539
1684108727088370000,12.233369873046875,0.25710999035462734,0.13439371126815675,0.06704173813760281
1684108727098388000,12.243387939453125,0.3458965273104608,0.150984853650257,0.13362287302613257
1684108727108405000,12.253405029296875,0.1958817608013749,0.01729395688921213,0.14433949735164642
1684108727118423000,12.263423095703125,0.053394028796255585,-0.14441055329386143,0.05440788201391697
1684108727128440800,12.27344091796875,-0.19776625937372444,-0.2907564585644752,-0.16439736599624155
1684108727138458000,12.2834580078125,-0.3571839372612536,-0.3118910530624911,-0.5262573322445154
1684108727148476000,12.293475830078124,-0.29822701364085075,-0.2167851768920198,-0.7372679808557033
1684108727158494000,12.303493896484374,-0.19767945787310598,-0.07733231907077133,-0.6955892320334911
1684108727168511700,12.31351171875,-0.1989174752354622,0.03199508427362889,-0.5264665910810232
1684108727178529000,12.323529052734376,-0.15363105731010437,0.13134689091816543,-0.28055180234909055
1684108727188546800,12.333546875,0.016755758359283206,0.284384000923112,-0.0038116672426462173
1684108727198565000,12.343565185546876,0.07587766328305005,0.3714526645777747,0.17873334986269473
1684108727208582000,12.353581787109375,0.07769201922863721,0.42968496371805665,0.2095382379710674
1684108727218600000,12.363599853515625,0.02982143002897501,0.3814055379891768,0.20655074659287928
1684108727228618000,12.373617919921875,-0.1319527478568256,0.2613601586123928,0.2543991239607334
1684108727238636000,12.383635986328125,-0.2847980616167188,0.0697663407959044,0.31512861021161076
1684108727248653000,12.393653076171875,-0.3635321372441947,-0.07214085137490182,0.38204935231804843
1684108727258671000,12.403671142578125,-0.3806158123835921,-0.1522197657400742,0.483750900426507
1684108727268689000,12.41368896484375,-0.259435364562273,-0.19679668368920683,0.5071615866303444
1684108727278706000,12.423705810546876,-0.0883941766373813,-0.1893692736348137,0.5559738405942917
1684108727288724000,12.433723876953126,-0.050424657596647736,-0.11957739653885364,0.5862561661332846
1684108727298742000,12.443741943359376,-0.08627075474262237,-0.012665639501437544,0.5167085826545953
1684108727308759800,12.453759765625,-0.11101371246352791,0.09247381063383073,0.31656711858212944
1684108727318776800,12.46377685546875,-0.2817738914899528,0.16590824548322705,0.09508534483909606
1684108727328795000,12.473794921875,-0.3659136255532503,0.20681659445483236,-0.13817162237167357
1684108727338813200,12.483813232421875,-0.26632074016183616,0.19357666219677774,-0.35582828486859797
1684108727348830000,12.493829833984375,-0.11642638516202568,0.13250818978250026,-0.4986187992125749
1684108727358847700,12.50384765625,-0.05165156904309988,0.022591186514496802,-0.5732756885290146
1684108727368866000,12.513865966796875,0.07901596130877733,-0.10884177525192498,-0.6038736558884382
