time,seconds_elapsed,z,y,x
1684108616865343000,0.029343017578125,0.18055238198339937,0.014171294824033974,2.2936855224400756
1684108616875360000,0.039360107421875,-0.5905886423796415,-0.22159195611923932,1.7534966954767703
1684108616885378000,0.0493779296875,-2.011524531328678,-0.4998951027587056,0.7470673442058264
1684108616895396600,0.059396728515625,-1.9275100310802458,-0.17193799063414333,-0.4058231362132355
1684108616905413600,0.06941357421875,0.034955578047037125,1.149679153689742,-0.37228677731435744
1684108616915431700,0.079431640625,3.1448236281037327,2.8651342878028747,0.19003029482681302
1684108616925449700,0.08944970703125,5.75658316655755,3.8142645656630396,-0.2569723354496062
1684108616935466800,0.099466796875,6.743790369355678,3.3766593303397294,-0.7313915631029755
1684108616945484500,0.109484619140625,5.635287275663018,1.519153686594963,-1.459011790973693
1684108616955502800,0.1195029296875,3.494682190912962,-0.018110241708159447,-1.9203372168414294
1684108616965519600,0.12951953125,1.6776824528187513,0.012754852154850959,-1.3981371971637009
1684108616975537700,0.13953759765625,0.8669698810458183,0.8378639058098196,-0.448123377934657
1684108616985555700,0.1495556640625,1.0237292995095253,1.7855191426813601,0.09776358760502189
1684108616995572700,0.15957275390625,1.9373843593627214,2.744522872041166,0.6447814203381538
1684108617005590800,0.1695908203125,4.298659901472926,2.831800465738773,1.8339523341998456
1684108617015608800,0.17960888671875,4.853513798126578,2.567512984970212,0.8159794793251901
1684108617025625600,0.18962548828125,5.384750672349333,1.9455726342543957,0.47211906095221634
1684108617035644000,0.199643798828125,5.317070636308193,1.0124398437321185,0.43399394949097186
1684108617045660700,0.20966064453125,4.093316777104139,-0.28958295780569315,-0.20175993211977183
1684108617055678700,0.2196787109375,3.0714807439953087,-1.6279232733935116,0.1188014071976766
1684108617065696800,0.22969677734375,3.016475480610132,-1.7869307630449534,1.8442970564730465
1684108617075713500,0.239713623046875,2.769063731318712,-1.0895116852357982,2.262385982682556
1684108617085731800,0.24973193359375,2.3554607183516025,-0.29133097051680085,1.822993133290112
1684108617095749600,0.25974951171875,1.6656880636423825,-0.26931261545419694,1.4358020341694355
1684108617105766700,0.2697666015625,0.5483890845537185,-0.5800920905455946,0.3284941781433299
1684108617115784700,0.27978466796875,0.4270131141602993,-0.8636293384462594,-0.621455489808321
1684108617125802800,0.289802734375,1.0044833317697048,-0.3585802139252424,0.4254126932263374
1684108617135819800,0.29981982421875,2.593189278018474,0.7505468568846583,2.0872624938800928
1684108617145837800,0.309837890625,4.349205262839794,1.528421719547361,2.9411995826125144
1684108617155855600,0.319855712890625,5.602320825606585,1.808430208799988,2.8777292732208966
1684108617165873000,0.329872802734375,6.158171332082152,1.1281322155311704,1.734353019067645
1684108617175890700,0.339890625,6.475503005295992,-1.1589198602437973,-4.623810139483213
1684108617185908700,0.34990869140625,6.721219056585431,0.1323686351813376,-3.8935365475594996
1684108617195925800,0.35992578125,6.726901778396964,3.63901876565516,1.3180077216550707
1684108617205943800,0.36994384765625,6.540970625984668,2.904554736304283,-0.20667700332105157
1684108617215961600,0.379961669921875,6.858302883720397,1.9454421397425232,-0.7553513345569371
1684108617225978600,0.389978515625,8.477958679506182,2.269785299153626,-1.0978273858994245
1684108617235996700,0.39999658203125,9.954435838413238,3.4936680454343554,-2.4712159262537954
1684108617246014700,0.4100146484375,9.97157285117507,4.801043898437917,-3.633833179710805
1684108617256031700,0.42003173828125,8.518687580257653,6.097168874108791,-5.061618203902245
1684108617266049500,0.430049560546875,6.569646100848913,7.665448702922463,-6.364558412545919
1684108617276067800,0.44006787109375,4.58200279584527,9.390899453610182,-7.568928941366076
1684108617286084600,0.450084716796875,1.8193799112290143,11.171686307072639,-8.890802983060478
1684108617296102700,0.4601025390625,-1.3934218590795993,12.835147926837205,-9.59338368141651
1684108617306120700,0.47012060546875,-3.953904214760661,14.612379718166588,-9.640377487781643
1684108617316137700,0.4801376953125,-6.162037944382429,16.260102501529452,-8.166831121629476
1684108617326155800,0.49015576171875,-7.601303270748257,16.394828951883316,-5.086625219386816
1684108617336173800,0.500173828125,-7.385881819957494,16.234886227208374,-1.5297136590540408
1684108617346190600,0.510190673828125,-6.256540520897508,16.797897711354494,2.275322182753682
1684108617356209000,0.520208984375,-5.522231974369287,16.464881562274694,10.597775827771425
1684108617366226700,0.530226806640625,-5.384481792280078,13.602669591659307,21.57058323805332
1684108617376243700,0.54024365234375,-6.07893120662868,8.834866576305032,30.692659905552862
1684108617386261800,0.55026171875,-7.1252978698819875,3.9547757368981835,36.47802142282724
1684108617396279800,0.56027978515625,-7.211236616191267,1.730602434362471,36.0947644482851
1684108617406296800,0.570296875,-4.979062085768581,1.0220277562886475,29.150419942402838
1684108617416314600,0.580314697265625,-1.1586474730432033,1.1651461874127387,20.51669027094841
1684108617426332700,0.590332763671875,2.1949825716257094,1.9119526887252927,15.409507416701317
1684108617436349700,0.600349609375,4.4070103860765695,1.4297306053012608,12.908104441976546
1684108617446367700,0.61036767578125,5.648756998088955,-0.29618162541836496,10.846325056660175
1684108617456385500,0.620385498046875,5.343730095174909,-1.7833675176054238,9.063059245863556
1684108617466402800,0.63040283203125,3.492807629212737,-2.3264783694952724,8.729692383649946
1684108617476420600,0.640420654296875,1.9493033452153206,-2.3896923660382625,8.758979852932692
1684108617486438700,0.650438720703125,11.971709727048873,-4.456437557068467,6.993195922812819
1684108617496455700,0.66045556640625,42.38111032485962,-8.167192940679191,1.446520996582508
1684108617506473700,0.6704736328125,22.070398553574083,-7.828859980490804,-0.9411112220555543
1684108617516491800,0.68049169921875,7.15382721427381,-7.6919415730506175,-0.5222814143508673
1684108617526508800,0.6905087890625,7.099826744017005,-7.131791323554515,0.8480763800054788
1684108617536526600,0.700526611328125,-0.20873627393841743,-6.10233663213551,4.6472190721213815
1684108617546545000,0.710544921875,-7.755194440299272,-2.6287366844788194,7.423305249422788
1684108617556561700,0.720561767578125,-8.600916366133093,0.552810115866363,7.9226938639640805
1684108617566579700,0.730579833984375,-2.1237112330943346,-2.598165897387266,-0.37075580488741394
1684108617576597800,0.74059765625,3.856716344684362,-4.776341126596927,-3.593852174717188
1684108617586614500,0.750614501953125,4.684004788205027,-3.962613883177936,-1.9858540834993124
1684108617596632800,0.7606328125,1.9942196146540343,-3.6677515236645934,-0.15551497136056422
1684108617606649600,0.770649658203125,2.1597573828570544,-3.855998551803827,-3.0117426068693396
1684108617616667600,0.780667724609375,2.706334011161327,-2.923326364530623,-4.734966329157352
1684108617626685700,0.790685791015625,2.9275813916265965,-2.467856678953767,-3.6577252196907994
1684108617636702700,0.80070263671875,4.074778080850839,-2.132451588910818,-3.5954601944357156
1684108617646720800,0.810720703125,5.547644063523411,-1.349818571935594,-4.895999187156558
1684108617656738800,0.82073876953125,5.751745663398504,1.4375256430916488,-7.304754273322224
1684108617666755600,0.830755615234375,4.723764551663399,4.623268287691474,-10.393739109826088
1684108617676774000,0.84077392578125,2.9426059422791004,6.018061435124277,-11.985025135695933
1684108617686791700,0.850791748046875,1.8672545920819044,5.142929290410876,-10.702347962880134
1684108617696808700,0.86080859375,0.813482036486268,4.173336070236563,-5.263933504882455
1684108617706826800,0.87082666015625,1.5144237354636192,0.9130833974450826,-1.895532007539272
1684108617716844800,0.8808447265625,0.8828291289567947,1.4157774832725525,2.737166956320405
1684108617726861800,0.89086181640625,-3.0820158742740746,4.635915587818622,5.6602440222650765
1684108617736879900,0.9008798828125,-4.191162818828225,0.755724844044447,4.89640659891367
1684108617746897700,0.910897705078125,-2.8800980481788514,1.0872220399286596,3.15087226061821
1684108617756914700,0.920914794921875,-5.035242238152027,6.947860405048727,0.33104163413643833
1684108617766932700,0.9309326171875,-11.524092216277122,5.757468132698536,2.276401794683933
1684108617776950500,0.940950439453125,-14.916084432566166,3.3661657011151314,0.24449440053999422
1684108617786967800,0.9509677734375,-12.247732653796673,2.631032394200563,-0.15846856046915053
1684108617796985600,0.960985595703125,-8.7001044701159,0.352237128508836,4.47793510312736
1684108617807003600,0.971003662109375,-4.179595130631327,1.468215672648698,6.365438117989897
1684108617817020700,0.981020751953125,-3.662729896110296,2.8917709503158924,7.5103779681980605
1684108617827038700,0.991038818359375,-4.783938742119074,4.898197573983669,8.143966378870607
1684108617837056500,1.001056396484375,-7.074335744407772,4.792336568108201,9.28478359619081
1684108617847073800,1.01107373046875,-8.36839238937199,1.7833334692053495,12.117690561866759
1684108617857091600,1.021091552734375,-6.450988741764426,1.1570145380791277,7.737598577854037
1684108617867110000,1.03110986328125,-6.480377333334088,1.9356462835237382,1.7465800479561089
1684108617877126700,1.041126708984375,-3.8946582450658083,5.673953983187675,2.669987271016836
1684108617887144700,1.051144775390625,0.43512335537970065,6.876257642605901,-0.5332733484864235
1684108617897162800,1.061162841796875,6.494831975144147,3.2798315257474777,-6.526808829641341
1684108617907179500,1.071179443359375,10.999345873117447,0.6824015414193272,-9.801796130228041
1684108617917197800,1.08119775390625,13.3035346693933,-1.6204130438938735,-9.66505483292043
1684108617927215600,1.091215576171875,11.0169633628726,-5.626188023406267,-9.927961672985553
1684108617937232600,1.101232666015625,11.22317684033513,-6.130803432685137,-8.885730502101778
1684108617947250700,1.111250732421875,7.468344414588809,-2.5862600632771846,-7.288769353204965
1684108617957268700,1.121268798828125,3.9857168186068535,-0.006306114406883717,-3.867461610582471
1684108617967285800,1.13128564453125,2.2353382551506162,0.025751550241559742,-3.048649318984151
1684108617977303800,1.1413037109375,0.5830385192610323,-1.354688954450935,-2.165948784843087
1684108617987321600,1.151321533203125,-1.2324398544847965,-2.6187375607728955,-1.2890706732451915
1684108617997338600,1.161338623046875,-2.523358785945177,-2.868572737818956,-0.8967518558472395
1684108618007356700,1.171356689453125,-3.51208633017838,-1.7780562594547866,0.23348843787908552
1684108618017374500,1.18137451171875,-3.922527079722285,0.050672275682166215,0.9923317062050103
1684108618027391700,1.191391845703125,-3.5050545318454502,1.6358724788323045,-0.20714578987658022
1684108618037409500,1.201409423828125,-2.8400825563937424,3.623391865195334,-2.1506623683840034
1684108618047427600,1.211427490234375,-1.5901128904372452,3.692094814543426,-2.5159441257745025
1684108618057444600,1.221444580078125,-1.6414917800188065,1.095189146350324,-3.271394244530797
1684108618067462700,1.231462646484375,-1.2730600341647862,1.854188043629378,-3.5714591411232948
1684108618077480400,1.24148046875,-0.3844874296525493,2.317094455078244,-3.527822828492522
1684108618087497700,1.251497802734375,1.4704343716114758,0.8718805955715477,-2.650637842902541
1684108618097515500,1.261515625,2.7550860593706368,0.42078138016387817,-1.9823574735552072
1684108618107533600,1.271533447265625,2.7610224636822935,0.4507294322472065,-2.4186136323571206
1684108618117550600,1.281550537109375,1.9271289228081703,0.13914602036178111,-3.5341648909956214
1684108618127568600,1.291568603515625,1.1702981633484364,2.1086935505740345,-5.259276034465432
1684108618137586700,1.301586669921875,1.0944722302526235,1.1171410120479761,-5.803503907686472
1684108618147603700,1.311603759765625,-4.860307111528516,-7.307540104648471,1.5149094731539487
1684108618157621500,1.32162158203125,-6.038611471199989,-4.71950923230648,2.308095740586519
1684108618167639800,1.331639892578125,-2.668689632421732,-1.988006585358083,3.956736807838082
1684108618177656600,1.341656494140625,-1.1186112307310103,-3.0706358176037667,5.5938978651762
1684108618187674600,1.351674560546875,-0.3409527872979641,-3.438748414506018,4.352392076182365
1684108618197692700,1.361692626953125,-0.3856605285525322,-0.6253161107592284,1.5127297910273074
1684108618207709400,1.37170947265625,0.01787939209435135,0.9104702923372388,-1.7065782924354076
1684108618217727700,1.381727783203125,0.15952186891436576,1.7854656589284539,-1.3114175296097994
1684108618227745500,1.39174560546875,-2.48349790019989,2.061661165764183,-0.13377718680500983
1684108618237762800,1.4017626953125,-6.841677912133932,2.1720881643809378,-1.3336118257611989
1684108618247780600,1.411780517578125,-5.038278244847059,3.7286703950077293,-3.3406033898353575
1684108618257798700,1.421798583984375,-3.5606291195511814,4.443318255515396,-4.2297687360763545
1684108618267815700,1.431815673828125,-2.2077822858355938,4.054125753444433,-2.6952947307527064
1684108618277833700,1.441833740234375,-0.5256652115702629,2.766321739134192,-1.2971686395049093
1684108618287851500,1.4518515625,0.496136334747076,1.4950123480290174,-1.7972382220476866
1684108618297868800,1.461868896484375,7.826940995126963,4.422388572472333,1.206101298135519
1684108618307886600,1.471886474609375,12.75147244928479,2.7644445470854637,0.6286264043509959
1684108618317904600,1.481904541015625,11.737850702291727,-0.5928802604481578,-1.109714223048091
1684108618327921700,1.491921630859375,9.60250689907074,-0.13484481603652237,-0.7475199102789163
1684108618337939700,1.501939697265625,7.603184846711159,0.38186347435712814,0.7540934434503317
1684108618347957500,1.51195751953125,3.100089291103184,-0.2739610257819295,2.170115256872773
1684108618357974500,1.521974609375,-1.0346136816173792,-0.3162672588527202,1.0201865123361349
1684108618367992600,1.53199267578125,-2.8691224806562063,0.8263871107667684,-2.404578677263856
1684108618378010600,1.5420107421875,-5.571940300390124,1.729735296139121,-7.794394816309214
1684108618388027600,1.552027587890625,-7.754948356583714,4.921953712624311,-10.93311369779706
1684108618398045400,1.56204541015625,-1.3308333009585738,9.206617821970582,-3.7686540303498504
1684108618408063700,1.572063720703125,0.22644611815214155,8.647870425009726,-1.6829513331323862
1684108618418080500,1.58208056640625,-1.4224340185523032,7.027215681314468,-1.9259061030149458
1684108618428098600,1.5920986328125,-2.3345719518408177,4.02058004219532,-1.9968401724159717
1684108618438116600,1.60211669921875,-1.9172104631230233,-0.6717763947695493,-1.356655432218313
1684108618448133600,1.612133544921875,0.8615247673824429,0.07045534597337245,1.7133955712348221
1684108618458151700,1.622151611328125,1.3572016679242251,-2.852092143139243,2.871986345654726
1684108618468169700,1.632169677734375,-1.1503949007436634,-3.683065997174382,5.256725180938839
1684108618478186500,1.6421865234375,0.11330956831574439,-0.015562310791015624,6.442586239600181
1684108618488204800,1.652204833984375,0.22580431311726568,0.16235095486044882,3.159405695685744
1684108618498222600,1.66222265625,0.4907826987594366,-0.9251555280327797,1.0876333241432905
1684108618508240000,1.672239990234375,2.345427984637022,-0.1954997757464647,1.1980252514466643
1684108618518257700,1.682257568359375,2.4558441695988176,0.5817576856702565,-0.02809387558400631
1684108618528275700,1.692275634765625,1.065770451903343,0.47576574689149853,-0.5534472447261214
1684108618538292700,1.702292724609375,-0.42855639807954427,0.5923252569139004,0.6575055850937962
1684108618548310500,1.712310546875,-0.9534247601836919,1.1667746653974056,1.5951631595641373
1684108618558328600,1.72232861328125,-1.0613725092053412,1.4737047715842724,2.8153622488960623
1684108618568345600,1.732345703125,-1.164992750416696,1.3785130437612532,4.3929619869798415
1684108618578363600,1.74236376953125,-1.9041824931152165,2.2949749777287245,4.581237948952615
1684108618588381400,1.75238134765625,-3.24574483948946,4.046873590359091,4.997205060702562
1684108618598398700,1.762398681640625,-3.7799089993357655,6.177486273404956,7.851706018549203
1684108618608416500,1.77241650390625,-4.4483495276808735,4.463597950217127,9.198790489345788
1684108618618434600,1.7824345703125,-2.142708779031038,3.152346424823999,10.338068076008557
1684108618628451600,1.79245166015625,2.3460078303515908,2.0992793871492146,9.393332233715057
1684108618638469600,1.8024697265625,5.918177165570855,1.5845394742190837,5.570442170786857
1684108618648487700,1.81248779296875,7.416071206516027,1.6933090610176325,0.6623536096468567
1684108618658504700,1.822504638671875,7.755973023456335,0.9815700736939906,-5.515912123697996
1684108618668522500,1.8325224609375,7.457192905977368,-0.15038754534423351,-10.30121163277626
1684108618678540800,1.842540771484375,6.30715076419413,-0.9673369656801223,-11.303299593842029
1684108618688557600,1.8525576171875,4.34389605051577,-2.0688456704407927,-9.453967027419806
1684108618698575600,1.86257568359375,2.683883694422245,-3.2405046007484195,-6.372361779773235
1684108618708593700,1.87259375,2.9396061759412286,-2.2504238883405923,-1.008548681512475
1684108618718610400,1.8826103515625,3.484758178269863,-0.8286579783082008,3.541955691002309
1684108618728628700,1.892628662109375,3.5545290491104122,0.04795534487366676,6.035401276981831
1684108618738646800,1.902646728515625,2.0577192962706086,0.20943536211848257,7.571338925117254
1684108618748663600,1.91266357421875,-1.2965303416013716,0.3597363982230425,7.9250968334525815
1684108618758681600,1.922681640625,-4.965389534246921,0.7557558237046003,6.879828486829996
1684108618768699600,1.93269970703125,-7.201446459060907,1.221685236236453,5.5340819866389035
1684108618778716700,1.942716552734375,-6.984232279634475,0.9552847088366746,4.770817979261279
1684108618788734700,1.952734619140625,-5.893675761520862,0.32617841201424597,4.568216262555122
1684108618798752500,1.96275244140625,-5.037409645318984,0.3324462402373552,3.801458567842841
1684108618808769800,1.972769775390625,-4.912074123644828,1.1402549072623251,3.332678442054987
1684108618818787600,1.98278759765625,-4.987331316941976,2.3502812698870894,4.2887920029312365
1684108618828805600,1.9928056640625,-4.452798908305168,3.3511277064591645,3.9677714120715852
1684108618838822700,2.00282275390625,-4.271382018446922,4.893410924229025,1.3873656277805566
1684108618848840700,2.0128408203125,-0.8117956908345222,5.290045266738534,-0.32568682910501956
1684108618858858500,2.0228583984375,6.468947007781267,3.158740509775281,-5.618415635839105
1684108618868875800,2.032875732421875,12.486039890134334,0.6004319910019635,-8.875106232234835
1684108618878893600,2.0428935546875,17.207637034630775,-3.2992326840490103,-5.283199930888414
1684108618888911600,2.05291162109375,17.727727076417207,-6.010135902822017,2.0062562355369327
1684108618898928000,2.06292822265625,14.806418773710726,-7.7142328998357055,6.837214502984285
1684108618908946200,2.0729462890625,12.001819618630408,-7.5689885625988245,5.46685495506227
1684108618918964200,2.082964111328125,10.007916084188222,-3.6848183937996626,-0.42461423632502554
1684108618928981200,2.092981201171875,12.011245618623494,-2.8096166909813878,-4.9628451104611155
1684108618938999300,2.102999267578125,11.294031414759159,-1.5259861629635094,-12.205908943545818
1684108618949017300,2.113017333984375,7.4310969262123105,1.1837445048987865,-22.04162604807615
1684108618959034000,2.1230341796875,-1.221679391017556,4.238466421794891,-27.1243104208827
1684108618969052400,2.133052490234375,-9.58195569395125,4.960062201744318,-19.312561149668692
1684108618979070200,2.1430703125,-5.552747524142265,1.5063140787661076,-15.426612865281104
1684108618989087200,2.153087158203125,-5.208413277712464,1.9025369178652762,-14.497461545610427
1684108618999105300,2.163105224609375,-5.542691994073986,5.7104258110165595,-9.235537042462825
1684108619009123300,2.173123291015625,-4.8298295556783675,7.7366311941266055,-7.628235701337457
1684108619019140400,2.183140380859375,-4.828150808811188,9.897330387878418,-4.2089737853288645
1684108619029158400,2.193158447265625,-4.97660183313489,12.370517321944236,0.4716846150577068
1684108619039176200,2.20317626953125,-5.226909303867816,12.487319993072747,3.3419898757576942
1684108619049193200,2.213193115234375,-4.224847061765193,10.329096834045648,5.013989022243023
1684108619059211300,2.223211181640625,-1.6755273206114767,7.8051681392580265,6.0932455631852145
1684108619069229300,2.233229248046875,2.7390193061888217,7.158149169126153,6.504663633328676
1684108619079246300,2.243246337890625,3.975650182622671,7.415725169557333,7.500092721027135
1684108619089264000,2.25326416015625,3.4247651895999907,6.03122428355813,6.764382491007447
1684108619099282200,2.2632822265625,3.0895339948192238,5.543282361182571,5.870235264700651
1684108619109299200,2.27329931640625,4.563526058912277,5.8163125358551735,6.882801365160942
1684108619119317200,2.283317138671875,3.170154176454246,3.6553216656804084,5.888412141904235
1684108619129335000,2.2933349609375,2.2492744260445234,1.0733154604554176,3.3035657448172566
1684108619139352300,2.303352294921875,2.9981808222457764,2.1192706202983853,4.3600852610334755
1684108619149370000,2.3133701171875,1.9516212667688726,1.6153250731050968,3.7740097121641036
1684108619159388400,2.323388427734375,0.10524170493334531,-1.860839464342594,0.37163346450477835
1684108619169405200,2.3334052734375,-0.14028437674194574,-3.4695033259928225,-2.1067115829765797
1684108619179423200,2.34342333984375,-0.39169220993220805,-3.7037808684229847,-3.0281477982252833
1684108619189441300,2.353441162109375,-0.38162060551196336,-4.253046151289343,-3.25887378565371
1684108619199458300,2.363458251953125,-0.4750822946719825,-4.7593899917960165,-3.4351650030612944
1684108619209476400,2.373476318359375,-1.3163523556634782,-4.079105880922079,-3.775049868866801
1684108619219494400,2.383494384765625,-1.6041105822600423,-4.959098909670114,-4.322120272037386
1684108619229511200,2.39351123046875,-1.2566672638989984,-4.6643467325329775,-5.159058002912998
1684108619239529500,2.403529541015625,-0.22386735370531677,-0.5817512559294701,-4.618991341024637
1684108619249547300,2.41354736328125,1.2325297247253357,7.510327114793657,-3.9729584593206644
1684108619259564300,2.423564208984375,4.27571215660572,15.03396145492792,-2.3430407972395417
1684108619269582300,2.433582275390625,3.7867464441403746,9.40360169879496,-0.8132552419930696
1684108619279600000,2.44360009765625,0.428680024459213,-1.5261743790119886,-1.9020006190314889
1684108619289617400,2.453617431640625,-0.9549300501801073,-4.736949027407169,-2.316044653764367
1684108619299635200,2.46363525390625,-1.4240110586106776,-6.129367846924066,-2.2703774198278786
1684108619309653200,2.4736533203125,-0.8723965092044323,-6.503203497648239,-1.6207038435339927
1684108619319670300,2.483670166015625,-1.459111598086357,-7.767157265293598,-1.7830077443823218
1684108619329688300,2.493688232421875,-1.7253122189998626,-8.529990480038522,-1.5100781074747442
1684108619339706000,2.5037060546875,-0.8434311845481395,-7.040148228123783,-0.7776268792510033
1684108619349723400,2.513723388671875,-1.066809731823206,-6.8264072777658695,0.07977437846064567
1684108619359741200,2.5237412109375,-2.129420842912793,-6.702963268926739,1.0073410592883825
1684108619369759200,2.53375927734375,-2.4874855085313317,-4.335982208651304,1.6281901076361536
1684108619379776300,2.5437763671875,-2.238867306059599,-1.8442443033725022,2.0634452727019785
1684108619389794300,2.553794189453125,-2.704452435198426,-0.7263467738687992,2.34749222369045
1684108619399812000,2.56381201171875,-3.2762586356967685,0.28574060316383837,3.173691702930629
1684108619409829000,2.5738291015625,-3.148441818600893,1.096750112056732,4.878801676379144
1684108619419847200,2.58384716796875,-2.876948936498165,2.003981860864162,6.645348699826002
1684108619429865500,2.593865478515625,-2.986339285543561,2.450537879884243,7.864399495905637
1684108619439882200,2.60388232421875,3.641957741716504,4.234452509978413,10.120430702733993
1684108619449900000,2.613900146484375,12.276320450377463,6.974858886611461,10.609293247085809
1684108619459918300,2.62391845703125,8.501042033451794,6.290512348604202,6.6571104492902755
1684108619469935000,2.63393505859375,3.4675410860091445,4.671234153959155,3.9660783444181082
1684108619479953400,2.643953369140625,-0.0750442811988294,3.2342344344377514,2.2472397053465247
1684108619489971200,2.65397119140625,-1.7354213789515196,2.2494278630405664,0.88520637948215
1684108619499988200,2.66398828125,-1.884800039514154,1.322421738705039,-0.22253274410068988
1684108619510006300,2.67400634765625,-0.9517371724229305,0.4425187263280153,-1.2924527168989182
1684108619520024300,2.6840244140625,0.42097032686471936,-0.15844985576868056,-1.9942256060034036
1684108619530041300,2.694041259765625,2.2173370267748833,-0.4603957438021898,-1.5851836173415184
1684108619540059400,2.704059326171875,5.0555122882425785,-0.2897650363743305,-0.5141550987794995
1684108619550077200,2.7140771484375,4.396466195708513,-0.12654372842013836,0.22264526456445455
1684108619560094500,2.724094482421875,-0.5835439845651388,-0.5391682517439127,0.671730509801209
1684108619570112300,2.7341123046875,-2.3213573732197283,-0.8604699976325034,1.013772553640604
1684108619580130300,2.74413037109375,-1.9867039783269165,-1.0288707540512085,0.890047974294424
1684108619590147300,2.754147216796875,-0.7762094136685133,-1.2866717954099178,0.8958128214314579
1684108619600165400,2.764165283203125,0.3024976401647553,-1.4154659331053494,1.1908458613365889
1684108619610183200,2.77418310546875,0.7479279065579175,-1.2352093191981315,1.511425138169527
1684108619620200200,2.7842001953125,0.6430278546690941,-0.8855629378348588,1.7025675954893231
1684108619630218200,2.79421826171875,0.1834925270885229,-0.6273772810727357,1.7917308568030594
1684108619640236000,2.804236083984375,-0.4958306297987699,-0.4805781156092882,1.7205498269036412
1684108619650253300,2.81425341796875,-1.1318109771091491,-0.4339315152466297,1.486777311386168
1684108619660271000,2.82427099609375,-1.2748077546149492,-0.5199813207149505,1.209517828580737
1684108619670289200,2.8342890625,-1.0001123501438647,-0.5525386054486036,0.8663502878427505
1684108619680306200,2.84430615234375,-0.24262568405866622,-0.6876812353879213,0.7344973470985889
1684108619690324200,2.85432421875,0.5570055217295885,-0.7237403907626867,0.8646399767935276
1684108619700342300,2.86434228515625,0.7881249654550105,-0.5847732340991497,1.1262763585314155
1684108619710360300,2.8743603515625,0.3947879109252244,-0.3148065386503935,1.2987468486070632
1684108619720377000,2.884377197265625,-0.2053816297482699,0.06357435428798199,1.222462942610681
1684108619730395400,2.8943955078125,-0.7279740097444504,0.2843260601907968,0.9696630705401301
1684108619740413200,2.9044130859375,-1.0502560719072818,0.4944190094351768,0.7720490791186689
1684108619750430500,2.914430419921875,-1.0792763416212052,0.6274596986591816,0.4060781704202294
1684108619760448300,2.9244482421875,-0.8925847992956638,0.4570388345897197,-0.13163432955741883
1684108619770466300,2.93446630859375,-0.3498964836668223,0.08549977037012577,-0.8990431816548109
1684108619780483300,2.9444833984375,0.8053073517285287,-0.30032617787718774,-1.9614806897431611
1684108619790501400,2.95450146484375,1.7463772188603877,-0.48397477231025693,-2.7914649482190605
1684108619800519200,2.964519287109375,1.5375614499449728,-0.3543897764980793,-3.063576254481077
1684108619810536200,2.9745361328125,0.5577039523225278,-0.07471651054918765,-2.7750515735566617
1684108619820554200,2.98455419921875,-0.2380727699946612,0.2864455365628004,-2.358232813413441
1684108619830572300,2.994572265625,-0.6380554000187665,0.6808107650965451,-2.2077836010098455
1684108619840589300,3.00458935546875,-1.1961106499969958,1.0533785878419875,-1.811258271832764
1684108619850607000,3.014607177734375,-2.267732166016102,1.4157996951043605,-0.8740180459916591
1684108619860625200,3.024625244140625,-3.487068208777904,1.7212667430013417,0.35867227612286806
1684108619870642200,3.03464208984375,-3.9701626911222934,1.9167928222328423,1.1701204686939715
1684108619880660200,3.04466015625,-2.921450926047563,1.8623381784677504,1.4918021538108586
1684108619890678300,3.05467822265625,0.17047697817087173,1.1035042624920606,1.8590508273601531
1684108619900695000,3.064695068359375,3.5078146442085503,-0.3428904773622751,2.331001399877667
1684108619910713000,3.074713134765625,4.8361838931411505,-1.8692250153720378,2.5427795257300136
1684108619920731100,3.084731201171875,4.467404356762766,-3.039558834555745,2.2312267281785605
1684108619930748200,3.094748046875,3.369460066485405,-3.8485821380674836,1.5401920907095075
1684108619940766200,3.10476611328125,1.4935703325271605,-4.120730269208551,0.934323169350624
1684108619950784300,3.1147841796875,-0.3077899378865957,-3.772074652448296,0.7299702250629663
1684108619960801000,3.124801025390625,-1.6507792483240364,-2.8083272356927393,0.6161585524439811
1684108619970819300,3.1348193359375,-2.784534272173047,-1.849313861721754,0.6066828680902719
1684108619980837000,3.144837158203125,-3.336723333531618,-1.0247563044697046,0.6409525096997618
1684108619990854100,3.154854248046875,-3.427511273437738,0.009377484676241873,0.6512777966201305
1684108620000872200,3.1648720703125,-3.5171862836658954,1.0875661041259765,0.7379089091077446
1684108620010890200,3.17489013671875,-3.501200194504857,2.011325209364295,0.9744763160407542
1684108620020907300,3.1849072265625,-3.3428017766624687,2.5406425137013193,1.135870700828731
1684108620030925000,3.194925048828125,-2.9186370376706123,2.5624206302672623,0.9512827797189354
1684108620040943000,3.204943115234375,-2.2628069845736025,2.2803099080383777,0.33690848034322257
1684108620050960100,3.214960205078125,-0.7051099245727062,2.1083476597458124,-0.9815919932648539
1684108620060978200,3.224978271484375,7.491564546656608,2.7957641067177055,-5.21373651856184
1684108620070996000,3.234995849609375,8.140439958310127,3.714460083347559,-5.039870482474565
1684108620081013200,3.24501318359375,3.0077497378408906,3.728454121908545,-1.8136366914018986
1684108620091031000,3.255031005859375,0.9377658571504056,3.2121248939603566,-0.5418129210337996
1684108620101049000,3.265049072265625,0.21824995221495627,2.3935323825925585,-0.06601268735080958
1684108620111066000,3.275066162109375,-0.053589039911702274,0.9308119463592767,-0.3339385246217251
1684108620121084200,3.285084228515625,-0.16957856802642343,-0.5738228010177612,-0.9067708532974124
1684108620131102200,3.295102294921875,-0.050181204229593275,-1.7492103964596986,-1.3941548495292664
1684108620141119200,3.305119140625,-0.10557930285725742,-2.569131526082754,-1.7140771237581967
1684108620151137000,3.315136962890625,-0.06264321091771126,-2.94458279531002,-1.6187588469460605
1684108620161155300,3.3251552734375,0.8608224643319845,-3.0014626203954218,-1.3732912174597383
1684108620171172000,3.335172119140625,1.932013772240281,-2.278223749414086,-0.541562161143124
1684108620181190000,3.34518994140625,2.022999865067005,-0.9363596436142921,0.6316521819129586
1684108620191208200,3.355208251953125,1.1546440826207398,0.3653109834849834,1.590098569650948
1684108620201225000,3.365224853515625,0.12641867726836353,1.345944653111696,2.199232045763731
1684108620211243300,3.3752431640625,-0.6303763898234814,1.7961925123870373,2.3761662372499703
1684108620221261000,3.385260986328125,-1.2109423084259032,1.4773112716436385,2.045895002964139
1684108620231278000,3.395278076171875,-1.504125044289231,0.5303893174827099,1.236672377488017
1684108620241296100,3.405296142578125,-1.5129595081299543,-0.4256850804269314,0.35836569439172744
1684108620251314200,3.415314208984375,-1.108423598715663,-1.0481155527472494,-0.4137722320541739
1684108620261331200,3.425331298828125,-0.1594201986381784,-1.452515268561244,-0.8270856144249439
1684108620271349200,3.435349365234375,0.7585100908488035,-1.7265075662642717,-0.5905380812361836
1684108620281367000,3.445366943359375,1.130812540656328,-1.9613310521394014,0.08993687603473663
1684108620291384300,3.45538427734375,0.9103688777893781,-2.1142945854514834,0.7096554590478539
1684108620301402000,3.465402099609375,0.4037269311189651,-1.9138415712118149,1.226459611031413
1684108620311420200,3.475420166015625,0.044449382579326624,-1.3673060055702924,1.7151719332575797
1684108620321437200,3.485437255859375,-0.05469718381669372,-0.5987620119631291,2.0419117785468694
1684108620331455200,3.495455322265625,0.06389934845864773,0.296862301158905,2.187562943018973
1684108620341473000,3.50547314453125,0.22027890075929463,1.0744611233592032,2.1076275287777184
1684108620351490000,3.515489990234375,0.20535777394864707,1.5399977371811866,1.738879264320433
1684108620361508000,3.525508056640625,-0.12887363267242907,1.418974818009138,1.0221157268330454
1684108620371526100,3.535526123046875,-0.4961684834510088,0.8863269079446792,0.011695113968849181
1684108620381543200,3.545543212890625,-0.6038005906522274,0.37483810576498505,-0.973311071653664
1684108620391561000,3.55556103515625,-0.4435597598135471,0.08617547767460346,-1.655893814858794
1684108620401579300,3.565579345703125,-0.13463351137340068,0.053449850636720656,-2.0264675411775706
1684108620411596000,3.575595947265625,0.07628653634488582,0.16480828488469124,-2.1821882642433046
1684108620421614000,3.585614013671875,0.01837787966839969,0.36250118676126003,-2.072784471194446
1684108620431632100,3.595632080078125,-0.23375264177322386,0.5785018987447023,-1.7091931511089204
1684108620441649200,3.605649169921875,-0.4793441899001598,0.7467734758257866,-1.4435790979117153
1684108620451667000,3.6156669921875,-0.476466661702469,0.8417717269033194,-1.4091060426846145
1684108620461685200,3.625685302734375,-0.24243571444451809,0.8665437645882368,-1.3800108811035752
1684108620471702000,3.635701904296875,0.037567806372046465,0.763386172452569,-1.3641615700647234
1684108620481720300,3.64572021484375,0.3377835826773196,0.5223638319373131,-1.1990475802317262
1684108620491738000,3.655738037109375,0.5483066669672727,0.2798439463406801,-0.696727003891766
1684108620501755100,3.665755126953125,0.5896574990093708,0.12633505410552023,-0.1135506835952401
1684108620511773200,3.675773193359375,0.4415332224220037,0.06442132650613784,0.412233478179574
1684108620521791200,3.685791259765625,0.3139648271292448,0.10410510211884975,0.9717708564743399
1684108620531808300,3.695808349609375,0.1313304147073999,0.28877719438076016,1.4378528292194008
1684108620541826300,3.705826416015625,-0.4287830099096521,0.4956628720164299,1.7761591936618089
1684108620551844000,3.715843994140625,-1.2441788075953721,0.7184820318430661,1.9231559275239705
1684108620561861000,3.725861083984375,-1.948095722991228,0.8114461467444897,1.6823767481148242
1684108620571879200,3.735879150390625,-2.483811203932762,0.7640729856729507,0.8740408423453568
1684108620581897000,3.74589697265625,-2.7656249890416857,0.6821095727354287,-0.11033815128952264
1684108620591915000,3.7559150390625,-2.650641934555769,0.5825333462178707,-0.8637664088293909
1684108620601932000,3.76593212890625,-2.200137616301328,0.3526034776031971,-1.2035767480939625
1684108620611950000,3.7759501953125,-1.40804674289003,0.05509527975618839,-1.595563264797628
1684108620621968100,3.785968017578125,-0.3330019744239747,-0.2058610107630491,-2.169766005043685
1684108620631985200,3.795985107421875,0.16612535883262752,-0.29605390738546844,-2.4248776611879466
1684108620642003000,3.8060029296875,-0.08618234580680728,-0.21426702005863188,-2.363520398427546
1684108620652021200,3.816021240234375,-0.5704470409743487,0.07756137858629227,-2.2136139145985245
1684108620662038000,3.8260380859375,-0.8497637485705316,0.5560509974837303,-2.089547097685933
1684108620672056300,3.836056396484375,-0.9545406124711037,1.0955056649535895,-2.1747604523301125
1684108620682074000,3.84607421875,-1.1264799182794987,1.414405610397458,-2.2564491399794817
1684108620692091100,3.856091064453125,-1.3458410466067492,1.385097098326683,-2.1810525382116435
1684108620702109200,3.866109130859375,-1.3420651813298463,0.9895154797405004,-2.0110759107783434
1684108620712127200,3.876127197265625,-1.2369175844207405,0.5045902748376131,-2.0289470830336214
1684108620722144000,3.88614404296875,-1.0537168798856436,-0.01667231785953045,-2.0634581321835515
1684108620732162300,3.896162353515625,-0.8468843937419355,-0.5230570748984813,-1.9660937364965676
1684108620742180000,3.90618017578125,-0.6587479863703251,-0.9148685272961854,-1.6465271438375115
1684108620752197000,3.916197021484375,-0.3106120095700025,-1.238335926786065,-1.0901806705385446
1684108620762215200,3.926215087890625,0.3401535997442901,-1.3929834676623343,-0.3542152967140078
1684108620772233200,3.936233154296875,1.0725466680400073,-1.3496090208381413,0.3934311625540256
1684108620782250200,3.946250244140625,2.2315603440470992,-1.179235503041744,1.515561507321894
1684108620792268000,3.95626806640625,3.4761142685651776,-0.7570072850704193,3.0748095961570736
1684108620802286000,3.9662861328125,4.8606858817130325,-0.23130115696787834,4.699947622746229
1684108620812303000,3.97630322265625,6.601696605104207,0.09157003019452095,6.228750596696138
1684108620822321200,3.986321044921875,6.55413405894041,-0.29736674354970455,7.09867932754755
1684108620832339000,3.9963388671875,3.4992356164336202,-1.1119944429397581,6.829288386160135
1684108620842356200,4.006356201171875,1.5771259830921887,-1.5828706642240284,6.1005193535804745
1684108620852374000,4.0163740234375,0.5281307249009609,-1.939693805348873,5.001812262237071
1684108620862392000,4.02639208984375,-0.25849326140657064,-2.1519752045482394,3.56896849335134
1684108620872409000,4.0364091796875,-0.8911312394864856,-2.137089185583591,2.401853343953192
1684108620882427100,4.04642724609375,-1.2342097867667674,-1.9499872358262538,1.735757332907617
1684108620892445200,4.056445068359375,-1.2708607705548405,-1.5368173535794019,1.705156442938745
1684108620902462500,4.06646240234375,-1.1178165732219814,-0.8198924880504608,1.8164885737016796
1684108620912480300,4.076480224609375,-0.8856570458590984,-0.05546002141535282,1.7322674449652433
1684108620922498600,4.08649853515625,-0.6284228446029126,0.4444488176077604,1.430116682009399
1684108620932515300,4.096515380859375,-0.34035175266489387,0.6162205117642879,0.9827940625309943
1684108620942533400,4.106533447265625,-0.04263327306807041,0.45476095278561113,0.4030845415621996
1684108620952551400,4.116551513671875,0.25498262293711305,0.1302098497122526,-0.19076982461512088
1684108620962568400,4.126568359375,0.513469746863842,-0.10884966629743575,-0.7349743169605731
1684108620972586500,4.13658642578125,0.6709542647317052,-0.05314356116652488,-1.1620987825408577
1684108620982604500,4.1466044921875,0.7853340926274657,0.24709961460232732,-1.5229057326048612
1684108620992621300,4.156621337890625,0.8841203378111123,0.6633493426859378,-1.811516045986116
1684108621002639600,4.1666396484375,0.8749019892193377,0.9661445410251617,-2.0499372640922666
1684108621012657400,4.176657470703125,0.5947863863304257,1.1473358054339886,-2.1653850134804844
1684108621022674700,4.1866748046875,0.19438465411141514,1.1417004298955202,-2.254637122121453
1684108621032692500,4.1966923828125,-0.14387655601501464,1.0355699594289063,-2.3539760327517985
1684108621042710500,4.20671044921875,-0.41105332848429676,1.0387018277138471,-2.3840423774525523
1684108621052727600,4.2167275390625,-0.6862963569007814,1.238714696970582,-2.040731628851592
1684108621062745600,4.22674560546875,-0.9420094860695302,1.4832529366523026,-1.337127140405774
1684108621072763400,4.236763427734375,-1.0372140733741224,1.4992793578237293,-0.5199444958359003
1684108621082780400,4.246780517578125,-0.9792078746072947,1.2713421243309975,-0.04827507834732532
1684108621092798500,4.256798583984375,-0.833774152278155,0.8669961845308541,0.13833528850078583
1684108621102816500,4.26681640625,-0.6286795958429574,0.3534340832084417,0.10210895986557006
1684108621112834600,4.27683447265625,-0.4113952737897634,-0.12384265276789665,0.015824468858540056
1684108621122851300,4.286851318359375,-0.27366774192377924,-0.41617315571606156,0.00022241057902574538
1684108621132869400,4.296869384765625,-0.2025659147404134,-0.44009471405148504,0.11123919178247452
1684108621142887400,4.306887451171875,-0.1846361441656947,-0.2567921565771103,0.32062457727938887
1684108621152904400,4.316904541015625,-0.24903847371041773,-0.022642039918899536,0.407009606051445
1684108621162922500,4.326922607421875,-0.28824177232980724,0.029052491483092305,0.21673954765200615
1684108621172940500,4.3369404296875,-0.24378625227063894,-0.045537762337923046,-0.12204261760860681
1684108621182957300,4.346957275390625,-0.18014321666061878,-0.23036709098815916,-0.48193011474013325
1684108621192975600,4.3569755859375,-0.15282090997099876,-0.4948626615494489,-0.7853028207063675
1684108621202993400,4.366993408203125,-0.1767374998703599,-0.7484644976526499,-0.9945514280810952
1684108621213010400,4.377010498046875,-0.2737444604218006,-0.9034691814035176,-1.0422533827155829
1684108621223028500,4.387028564453125,-0.44859950754642486,-0.8164180899381637,-1.046626483233273
1684108621233046500,4.397046630859375,-0.7418598386906087,-0.3636345747053623,-1.055157287952304
1684108621243063600,4.4070634765625,-1.0687396769724786,0.25938158854842186,-1.0806301673829555
1684108621253081600,4.41708154296875,-1.3896088766627013,0.9104220692813396,-1.1682143428117036
1684108621263099400,4.427099365234375,-1.6006119264893233,1.4577666132181881,-1.231614509576559
1684108621273116400,4.437116455078125,-1.7184511010587213,1.9002432539701462,-1.314514034320414
1684108621283134500,4.447134521484375,-1.7583591869466006,2.2202362553477286,-1.4491650813505053
1684108621293152500,4.457152587890625,-1.6750665712319313,2.3691560662269593,-1.6750138181313872
1684108621303169500,4.46716943359375,-1.4995698652029037,2.1883184375613927,-2.007386700871587
1684108621313187300,4.477187255859375,-1.267829147773981,1.7601339415341615,-2.3794918745413423
1684108621323205400,4.487205322265625,-0.9890344182252884,1.1539473325282334,-2.7822584361955522
1684108621333222400,4.497222412109375,-0.7057794943973421,0.5253191746115684,-3.089404230959713
1684108621343240400,4.507240478515625,-0.39578210959434507,-0.03731178578436375,-3.3690824653446674
1684108621353258500,4.517258544921875,-0.07846446490585804,-0.6107224988698959,-3.413910033586621
1684108621363275500,4.527275634765625,0.12281038711071014,-1.0342658910930156,-2.809840270604193
1684108621373293300,4.537293212890625,0.16378975549191235,-1.221785774001479,-2.018791891983151
1684108621383311600,4.5473115234375,0.03142272774577141,-1.3512141179472208,-1.2483689527615904
1684108621393328400,4.557328369140625,-0.11312179065868258,-1.4681599969387054,-0.4972445882499218
1684108621403346400,4.567346435546875,-0.36940424414798617,-1.5319190601438284,-0.022067454901337623
1684108621413364500,4.577364501953125,-0.4972859431736171,-1.5472715275764464,0.42739919086843725
1684108621423381500,4.587381591796875,-0.49241278417930007,-1.4965560703396796,0.7868865827664733
1684108621433399600,4.597399658203125,-0.5162678531497716,-1.3935095373630524,1.1527253895178438
1684108621443417600,4.60741748046875,-0.55802843503654,-1.270867492556572,1.5955439755752683
1684108621453434400,4.617434326171875,-0.5911603047877549,-1.0875006376743317,2.2149770196452736
1684108621463452700,4.62745263671875,-0.32818799827098843,-0.9777437934041022,3.172391726247966
1684108621473470500,4.637470458984375,0.5247836064301431,-1.049636478704214,4.481118993860483
1684108621483487500,4.647487548828125,1.0509446386933325,-1.108679034781456,5.663361862024664
1684108621493505500,4.657505615234375,0.31465573200285435,-0.9996166025161742,5.917544128364324
1684108621503523300,4.6675234375,-0.6231174316711724,-0.9291817148089409,5.673734202957153
1684108621513540600,4.67754052734375,-1.0312662708856164,-0.9758686471819877,5.121385567122697
1684108621523558400,4.687558349609375,-1.0285532125346362,-1.2190601484298704,3.8627509486734866
1684108621533576400,4.697576416015625,-0.7838437079392373,-1.4183832818567752,2.2308719233915206
1684108621543593500,4.707593505859375,-0.5627716840408742,-1.4365186580061913,1.1351643061250447
1684108621553611500,4.717611572265625,-0.47760750230066473,-1.39377491030097,0.4570137001484632
1684108621563629300,4.72762939453125,-0.43865262548439204,-1.3087433419644832,-0.03402443467676639
1684108621573646600,4.737646484375,-0.4616658368032425,-1.2450678653895855,-0.29342385114282366
1684108621583664400,4.747664306640625,-0.43251171157658097,-1.0255904172062873,-0.3232192699477076
1684108621593682400,4.757682373046875,-0.349108621224761,-0.5760767174243927,-0.08604337572753429
1684108621603700500,4.767700439453125,-0.2859494236089289,-0.0017687632381916045,0.19621990671455858
1684108621613717500,4.777717529296875,-0.3358236077159643,0.5641711755752563,0.5495926151245832
1684108621623735600,4.787735595703125,-0.39079365365728735,0.8619283797472714,0.6950701765954495
1684108621633753600,4.797753662109375,-0.33704467394351956,1.0318728584766388,0.5818114616841078
1684108621643770400,4.807770263671875,-0.2299408284001052,1.251439738509059,0.3225035228937864
1684108621653788700,4.81778857421875,-0.1730861377559602,1.5526988133221864,-0.051853813616931435
1684108621663806500,4.827806396484375,-0.15005714434608816,1.8921037866562604,-0.46883477858453987
1684108621673823200,4.8378232421875,-0.010278817430138587,2.063582635346055,-1.0338505882903932
1684108621683841500,4.847841552734375,0.3795909993804991,2.0184949548631907,-1.7823334983825683
1684108621693859600,4.857859619140625,2.450191989056021,1.8438608570128678,-3.4899583772614595
1684108621703876600,4.867876708984375,3.170280140921473,1.510516791152954,-4.529673181410134
1684108621713894400,4.877894287109375,1.67884097520411,1.1512392426133156,-3.830904442557692
1684108621723912400,4.887912353515625,0.684455259078741,0.8900830456078052,-3.2124197852537035
1684108621733929500,4.897929443359375,0.3263432471871376,0.6793968066453934,-2.8574697445243595
1684108621743947500,4.907947509765625,0.19606617745757102,0.47112055143415926,-2.4159309691444038
1684108621753965300,4.91796533203125,-0.14601013397760687,0.13921148681342602,-1.7422192223981021
1684108621763982600,4.927982666015625,-0.691443145204708,-0.18435937305092812,-0.9085685503691434
1684108621774000400,4.93800048828125,-1.046346131921932,-0.31173546064198016,-0.22065789013952017
1684108621784018400,4.948018310546875,-1.2458411878496407,-0.42693595727086064,0.23774171140938996
1684108621794035500,4.958035400390625,-1.4077747940808534,-0.6124854168891907,0.5755313585013151
1684108621804053500,4.968053466796875,-1.5918483359277247,-0.7638871077120304,0.9959265158265829
1684108621814071300,4.9780712890625,-1.8343103538572787,-0.8328069146811962,1.4332964810892939
1684108621824088600,4.988088623046875,-2.083358033787459,-0.7719388967424631,1.9391122060686348
1684108621834106400,4.9981064453125,-2.176931951150298,-0.5982897182762622,2.445915773041546
1684108621844124700,5.008124755859375,-2.154635948190093,-0.36951544943749903,2.8785218849033116
1684108621854141400,5.018141357421875,-1.8502011659502982,-0.02581424021422863,3.0955843808993695
1684108621864159500,5.028159423828125,-0.6637134267579764,0.3948316770017147,2.87473885923326
1684108621874177500,5.038177490234375,3.6686639623343944,0.832792301633954,2.24667038102597
1684108621884194300,5.0481943359375,7.793194792869687,0.9294465032249688,1.0975362939983606
1684108621894212600,5.058212646484375,8.351704873943328,0.6929629751831292,-0.054519817955791944
1684108621904230700,5.068230712890625,6.528420356491208,0.44969256348013875,-0.7286582656815648
1684108621914247400,5.078247314453125,3.963182330715656,0.2761509370416403,-0.9133218823760747
1684108621924265700,5.088265625,1.5562386778861284,-0.025744682109355925,-0.9862132233247161
1684108621934283500,5.098283447265625,-0.13214761284179985,-0.24840602102577686,-0.7859338120862841
1684108621944300500,5.108300537109375,-0.9908710590679198,-0.4346703509151935,-0.27382190957218405
1684108621954318600,5.118318603515625,-1.4079063115060328,-0.6134574767917395,0.16884119366258382
1684108621964336600,5.128336669921875,-0.7373211723476648,-1.2590268326371907,0.5602046100318432
1684108621974353700,5.138353759765625,1.9047358892142772,-1.8686188661724328,1.162752862535417
1684108621984371700,5.148371826171875,-0.7688239795923233,1.6565496484190225,1.7583102332383393
1684108621994389500,5.158389404296875,1.2764251266837119,0.11288929707705973,2.125303470721841
1684108622004406800,5.16840673828125,-0.2818558341523632,1.3263444651067255,1.929018389816582
1684108622014424600,5.178424560546875,1.7024433845877647,0.5022784907639026,2.2838792909577488
1684108622024442600,5.188442626953125,2.362134204766154,0.027365561309456825,2.713764161162078
1684108622034460700,5.198460693359375,2.643433026090264,-0.9801146141886711,3.1096471007823943
1684108622044477700,5.208477783203125,-0.22983568752519784,-0.9705465753763913,2.397595101986825
1684108622054495500,5.21849560546875,-2.5751988632977008,-1.059713051560521,1.8818793297618626
1684108622064513800,5.228513671875,-4.528977892622351,-0.6628203503757715,1.3000927102580666
1684108622074530600,5.238530517578125,-5.6082946393191815,-0.6123895552992821,0.9174611741378903
1684108622084548400,5.24854833984375,-4.486538096299768,-0.8734791168093681,0.7294613987579941
1684108622094566700,5.258566650390625,-4.27194549754858,-0.24394027378857133,-0.36276188352406025
1684108622104583400,5.26858349609375,-3.253599644643068,0.4000543800860643,-1.429946878400445
1684108622114601700,5.278601806640625,-2.2615046698033807,1.2290420287400483,-2.539419693908095
1684108622124619500,5.28861962890625,-2.339289335751533,2.193274598664045,-4.030441510996222
1684108622134636500,5.298636474609375,-2.9290894581019877,2.641493582460284,-4.5709880653560155
1684108622144654600,5.308654541015625,-1.761546730941534,1.9506261182516813,-3.9386347494363783
1684108622154672600,5.318672607421875,-0.661772814084217,1.2591209406614303,-3.529372980543971
1684108622164689700,5.328689697265625,-0.5595809251755476,1.0852128189980983,-3.3972271943330763
1684108622174707700,5.338707763671875,-0.08606741419024765,1.1402625060468912,-3.359067267286777
1684108622184725500,5.3487255859375,0.6155249307155609,1.0440630624860525,-3.2346371700197456
1684108622194742800,5.35874267578125,1.2705727473936974,0.9655506667852402,-2.7748884919494388
1684108622204760600,5.368760498046875,1.8319383640289306,0.9144973558962345,-1.9459356223478912
1684108622214778600,5.378778564453125,3.953094651943445,0.7594651996165513,-0.26192951946556564
1684108622224795600,5.388795654296875,7.073637240749597,0.6802092920720577,1.7998752925530075
1684108622234813700,5.398813720703125,5.828683357128501,0.9320160614520311,1.4838982488185166
1684108622244831500,5.40883154296875,3.640352060085535,0.8083020034998655,0.46036593318581576
1684108622254848500,5.4188486328125,3.0133956347733735,0.043462709629535676,-0.04226677784323692
1684108622264866600,5.428866455078125,2.6472575528144833,-1.0432950007230042,-0.7370201435744762
1684108622274884600,5.438884521484375,0.696348525968194,-1.5608324354171752,-1.1812471351251006
1684108622284901600,5.448901611328125,-0.9749795893877744,-1.2368810518026352,-0.9028875821232795
1684108622294919400,5.45891943359375,-1.7170412342607975,-0.6438993768066168,-0.49903468653708694
1684108622304937700,5.468937744140625,-2.011699887895584,-0.05294716181159019,-0.1613157665938139
1684108622314954500,5.47895458984375,-2.274563473340869,0.3875409354716539,0.027154256646335122
1684108622324972500,5.48897265625,-2.469624273148179,0.5912772091656923,0.25028935055434703
1684108622334990600,5.498990478515625,-2.427704116785526,0.7071382155299186,0.5759554291322827
1684108622345007600,5.509007568359375,-2.034559369957447,0.6473264286458492,0.9169839120149612
1684108622355025400,5.519025390625,-0.9335796575069427,0.3796194948226213,1.4456012513890861
1684108622365043700,5.529043701171875,1.783238338267803,0.028154665860533713,2.2760151334539054
1684108622375061500,5.5390615234375,3.768983116173744,-0.15404840593934058,2.4764824684798716
1684108622385078800,5.549078857421875,3.4995611951261756,-0.1257581310003996,1.9933345023825764
1684108622395096600,5.5590966796875,2.0390181029319763,-0.060117491832375525,1.2414312624529003
1684108622405113600,5.569113525390625,0.748715842065215,0.020083003085851668,0.5362336595967412
1684108622415131600,5.579131591796875,-0.013314239603281021,0.1122895776182413,0.08803104241341352
1684108622425149700,5.589149658203125,-0.4578507354944944,0.14279577504098415,-0.33129473211467264
1684108622435167500,5.59916748046875,-0.6632564037054777,0.11145195775032042,-0.7349778240919113
1684108622445184800,5.609184814453125,-0.7281494393765926,-0.014009236130118369,-1.1240928770124912
1684108622455202600,5.61920263671875,-0.6509528024494647,-0.14402327100932596,-1.461386849541962
1684108622465220600,5.629220703125,-0.6102466980516911,-0.21566870355010032,-1.8075515262693165
1684108622475237600,5.639237548828125,-0.716477779348567,-0.1563701268851757,-1.967269794538617
1684108622485255400,5.64925537109375,-0.9000398645419627,-0.11747604034543037,-1.6956272748321293
1684108622495273500,5.6592734375,-0.9915064343620091,-0.2065449013739824,-1.2673185679033399
1684108622505290500,5.66929052734375,-1.0949538762897253,-0.29580548558235165,-0.817053465232253
1684108622515308500,5.67930859375,-1.2151105340212582,-0.32664486048221586,-0.30510142945498225
1684108622525326600,5.68932666015625,-1.2431389431536197,-0.2960129908531904,0.23583792361468076
1684108622535343600,5.699343505859375,-1.1328390780478714,-0.29244623828232286,0.6752393947049975
1684108622545361400,5.709361328125,-0.814697842016816,-0.4120207122117281,1.0087561867833137
1684108622555379700,5.719379638671875,-0.38188506513442844,-0.5813660560041666,1.3266490010112524
1684108622565396500,5.729396484375,0.13045830804798753,-0.7083522674947976,1.5965312330469488
1684108622575414800,5.739414794921875,0.6347849269807339,-0.7538555430412293,1.8214324598446487
1684108622585432600,5.7494326171875,0.9806640647649765,-0.6598369506508112,1.9267314479231834
1684108622595449600,5.75944970703125,1.038129580783844,-0.496311691313982,1.8012883742213248
1684108622605467600,5.769467529296875,0.7217559389472007,-0.4585656057655811,1.4290847086131573
1684108622615485700,5.779485595703125,0.2731664048055187,-0.4981278008252382,1.0506132147818803
1684108622625502500,5.78950244140625,-0.16776070494949816,-0.5613245539724826,0.738607705026865
1684108622635520800,5.799520751953125,-0.5025087923884392,-0.5477274057745933,0.4218813042297959
1684108622645538600,5.80953857421875,-0.6976087551623582,-0.4204237988978624,0.16471739173084496
1684108622655555600,5.8195556640625,-0.7281155371069907,-0.19191256490945816,-0.05070493584275245
1684108622665573600,5.82957373046875,-0.6036381300995126,0.12529226705431937,-0.17906944994926452
1684108622675591700,5.839591796875,-0.26459848294649274,0.4133306257665157,-0.22273381963074207
1684108622685608700,5.849608642578125,0.3280435848316178,0.4871551559120416,-0.35404169371277094
1684108622695626500,5.85962646484375,1.0704600710242986,0.26074936977028845,-0.4738754031002521
1684108622705644500,5.86964453125,1.4336276127398013,-0.11148001480102539,-0.4784308744475245
1684108622715661600,5.87966162109375,1.0773661971509456,-0.42907238477766513,-0.21933628614693879
1684108622725679600,5.8896796875,0.347064548176527,-0.4454857594400644,0.23733313060849903
1684108622735697400,5.899697509765625,-0.31429278044197706,-0.30397534803450105,0.6365244641244411
1684108622745714700,5.909714599609375,-0.7639893990427256,-0.19138883329629897,0.8179182653680444
1684108622755732500,5.919732421875,-0.947999228003621,-0.15902560983002184,0.8387000643730164
1684108622765750500,5.92975048828125,-0.919483327615261,-0.20378888066411016,0.7463496974557637
1684108622775767600,5.939767578125,-0.6543365996688604,-0.24474048425555228,0.5469800945386291
1684108622785785600,5.94978564453125,-0.06382043800354004,-0.23121640129387377,0.27594635438024995
1684108622795803600,5.9598037109375,0.8225175758570432,-0.19041560434997082,-0.015333178210258484
1684108622805821700,5.96982177734375,1.5895663624703884,-0.08183189551234245,-0.16211831514835356
1684108622815838500,5.97983837890625,1.696015981888771,-0.0026239187628030775,-0.1701364941701293
1684108622825856800,5.989856689453125,1.1301537844866514,-0.016529694518446922,-0.0709065968722105
1684108622835874600,5.99987451171875,0.3352192120820284,-0.06901859116852282,0.22593787636905907
1684108622845891600,6.0098916015625,-0.31245029438044875,-0.14923662174344063,0.5837950367167591
1684108622855909600,6.01990966796875,-0.6902133842140435,-0.28321137694716453,0.9547323356509209
1684108622865927700,6.029927734375,-0.8774620489656925,-0.47489948545098304,1.2197411164313554
1684108622875944700,6.03994482421875,-0.8291624206990003,-0.624226708087325,1.2943880688756704
1684108622885962500,6.04996240234375,-0.5319038136988878,-0.6750561470925808,1.203133972762525
1684108622895980500,6.05998046875,-0.06862696150243282,-0.647888154181838,0.7800789485782385
1684108622905997300,6.069997314453125,0.3525017707943916,-0.5243471147090196,0.2159650561481714
1684108622916015400,6.080015380859375,0.5748679261565208,-0.22197511021792887,-0.11041910757124423
1684108622926033200,6.090033203125,0.5667418663134798,0.1433516553580761,-0.09961831209361553
1684108622936050400,6.100050537109375,0.41648700743820516,0.45954292636513705,0.006714110685884952
1684108622946068200,6.110068115234375,0.22847386112008242,0.5207137266427279,0.01654547660946846
1684108622956086300,6.120086181640625,0.022966486100293695,0.34443419967293737,-0.19078852931559084
1684108622966103300,6.130103271484375,-0.1475380011320114,0.006973346143960953,-0.4137549886584282
1684108622976121300,6.140121337890625,-0.34166415043771264,-0.33279286171793937,-0.5290475474849343
1684108622986139400,6.150139404296875,-0.5113280586600303,-0.4783727145195007,-0.6343214011222124
1684108622996156400,6.160156494140625,-0.7152776828438043,-0.42651860864162444,-0.6675868341252207
1684108623006174200,6.17017431640625,-0.8331658111214637,-0.17498247289657592,-0.7091904718846083
1684108623016192500,6.180192626953125,-0.9176064278274774,0.2257856084167957,-0.7100850826367735
1684108623026209300,6.190209228515625,-0.9516022209316491,0.6801555160582066,-0.7329898651450872
1684108623036227300,6.200227294921875,-0.9662842417567967,1.1179179877698422,-0.7860200290650129
1684108623046245400,6.210245361328125,-0.9168407041519879,1.3621861783385276,-1.018028457519412
1684108623056262100,6.22026220703125,-0.8106465207993984,1.4206693469673395,-1.348712656520307
1684108623066280400,6.230280517578125,-0.6530313622891902,1.2546557779461145,-1.699307716910541
1684108623076298200,6.24029833984375,-0.18341712376475333,1.0279752665162085,-2.3146038073062893
1684108623086315500,6.2503154296875,0.5385649520885198,0.825887929072976,-2.7733669814705846
1684108623096333300,6.260333251953125,0.8326139493923633,0.6220709913581609,-2.2716151449292896
1684108623106351400,6.270351318359375,0.8541402100890875,0.4535504079520702,-1.5019295800715684
1684108623116369200,6.280369140625,0.9976666374921798,0.4521814576864242,-0.8322276534885168
1684108623126386400,6.290386474609375,1.433969558045268,0.4725847787678241,-0.10981032802313566
1684108623136404200,6.300404296875,1.9905179836571216,0.41001112595498557,0.5962821778461337
1684108623146422300,6.31042236328125,2.203312593075633,0.26013679082989694,1.1338131837770342
1684108623156439300,6.320439208984375,2.2082646625250577,0.003796469673514366,1.3431582372635602
1684108623166457300,6.330457275390625,1.999441294825077,-0.2940741317451,1.1400015170231461
1684108623176475400,6.340475341796875,1.3979782072097062,-0.5310948354035616,0.8801941042780875
1684108623186492400,6.350492431640625,0.6459434498548507,-0.5880658459037542,0.7255149992197751
1684108623196510200,6.36051025390625,-0.06590951923727989,-0.44791035623848435,0.692042060945928
1684108623206528500,6.370528564453125,-0.653220162859559,-0.17326047140955925,0.6468062041640281
1684108623216545300,6.380545166015625,-0.9833668939828872,0.0024777882903814314,0.45993630959689613
1684108623226563300,6.390563232421875,-1.0772615677326918,0.012148702955245972,0.19205664955526588
1684108623236581400,6.400581298828125,-1.0542501099795103,-0.0831716196835041,-0.05062836347520351
1684108623246598100,6.41059814453125,-0.8875503122597932,-0.2209720706552267,-0.08682225114554167
1684108623256616400,6.420616455078125,-0.5696464286485686,-0.371969856852293,0.05599398216158151
1684108623266634200,6.43063427734375,-0.16651980151031165,-0.5344476529628038,0.3386015479966998
1684108623276651300,6.4406513671875,0.2221656643539667,-0.5904308214694262,0.6940726899906993
1684108623286669300,6.45066943359375,0.5209393520921468,-0.518820460242033,0.9966194665268063
1684108623296687400,6.460687255859375,0.6426338869154453,-0.31162673957049847,1.1505752257466315
1684108623306704400,6.470704345703125,0.5427818025985732,-0.05792553474605083,1.1139441157028078
1684108623316722400,6.480722412109375,0.2836001205364242,0.08864274457097053,0.8286512563064694
1684108623326740200,6.490740234375,0.005202792807482183,0.06251461610198021,0.32925884237289427
1684108623336757500,6.500757568359375,-0.2415846505731344,0.05505436322391033,-0.08821195193827151
1684108623346775300,6.510775390625,-0.47753103953097015,0.15553835223615167,-0.3407262850657105
1684108623356793300,6.52079345703125,-0.6777163792777806,0.34957799230217934,-0.47510962107032534
1684108623366810400,6.530810302734375,-0.8261878618676215,0.5977244856089353,-0.5530538614943623
1684108623376828400,6.540828369140625,-0.9341454746961593,0.7508715587943792,-0.6553326249688863
1684108623386846200,6.55084619140625,-0.9054887045323848,0.7250859601527452,-0.823543704034388
1684108623396863200,6.56086328125,-0.7440443431228398,0.5785439843207597,-1.0183522826462983
1684108623406881300,6.57088134765625,-0.5179640626084059,0.43684769495427606,-1.1269903520196676
1684108623416899300,6.5808994140625,-0.3166997319858521,0.3999322150111198,-1.1483981739684939
1684108623426917400,6.59091748046875,-0.17476904934160412,0.44463820270001886,-1.01461894133687
1684108623436934100,6.60093408203125,-0.10172894757203757,0.48755146175324915,-0.7924439246326684
1684108623446952400,6.610952392578125,-0.04015782286524772,0.43578386511504646,-0.6116077572718263
1684108623456970500,6.620970458984375,-0.06427344246804714,0.1568979501515627,-0.4030374875500798
1684108623466987300,6.6309873046875,-0.04296235889196395,-0.3008715368002653,-0.2298319611981511
1684108623477005300,6.64100537109375,-0.014699008492566645,-0.7408926010936498,0.00775251382291317
1684108623487023400,6.6510234375,0.040593876194953915,-1.0471738879829644,0.3714335580185055
1684108623497040400,6.661040283203125,0.10372753751073031,-1.1404244186103343,0.8702633696332573
1684108623507058400,6.671058349609375,0.00879296278655529,-0.9532733690142631,1.2994070660814643
1684108623517076200,6.681076171875,-0.2178262103775516,-0.6075386081367731,1.5401190254732966
1684108623527093500,6.691093505859375,-0.4429162377456203,-0.30143676946759224,1.5883812443390488
1684108623537111300,6.701111328125,-0.6154869367927313,-0.0684013360530138,1.3977487823680042
1684108623547129300,6.71112939453125,-0.7425380302131176,0.06385024861991405,1.0759501928731798
1684108623557146400,6.721146484375,-0.7385141815245151,0.024124387431144714,0.7609925553143024
1684108623567164400,6.731164306640625,-0.672215370708704,-0.1407581317335367,0.3716702893838286
1684108623577182200,6.74118212890625,-0.6019155075579882,-0.29056583136320113,-0.15523030920028685
1684108623587199500,6.751199462890625,-0.5135270300090312,-0.39813305663466453,-0.6224503460645675
1684108623597217300,6.76121728515625,-0.24831892726421353,-0.429333666062355,-1.0145204493984579
1684108623607235300,6.7712353515625,0.19604272351674734,-0.21123627406060694,-1.3080121050804854
1684108623617252400,6.78125244140625,0.6395090328931808,0.2543997084826231,-1.3313871354490519
1684108623627270100,6.791270263671875,0.9441583346664905,0.7781523644298315,-0.9748580088347196
1684108623637288400,6.801288330078125,1.069642324900627,1.0632347959458828,-0.35290976707339283
1684108623647305200,6.81130517578125,1.0447808553665876,0.7353595168858766,0.2529574007198214
1684108623657323300,6.8213232421875,0.9814232856344431,0.015378770917654036,0.5586895292937756
1684108623667341300,6.83134130859375,0.9016243572544306,-0.6409159770816564,0.7553840677827596
1684108623677358300,6.8413583984375,0.7171562631320207,-1.0475941592216491,1.0403756061449647
1684108623687376400,6.85137646484375,0.45435007042977954,-1.083484387770295,1.385460670942068
1684108623697394400,6.86139453125,0.13796002544760702,-0.8438333356082439,1.6483037981212139
1684108623707411200,6.8714111328125,-0.08752104706466197,-0.3923515506237745,1.6941273916631936
1684108623717429500,6.881429443359375,-0.18896423649787902,0.11083353359103203,1.5639111122101543
1684108623727447300,6.891447265625,-0.0947872386753559,0.5364917260110378,1.346539988656342
1684108623737465300,6.90146533203125,0.2467442252933979,0.7082903081744909,0.7973632608562707
1684108623747482400,6.911482421875,0.7312221978854387,0.43506665675640105,0.09130962569266557
1684108623757500400,6.92150048828125,1.1430114394288509,-0.06519172635674476,-0.5175508786976337
1684108623767518200,6.931518310546875,1.2842197260826826,-0.43810733962655063,-0.9108382488667964
1684108623777535500,6.941535400390625,1.0483767609667032,-0.5602776752680539,-0.9823349205866455
1684108623787553300,6.95155322265625,0.498120786562562,-0.4265718001335859,-0.6574018324583768
1684108623797571300,6.9615712890625,-0.022921441382169724,-0.12966273722350596,-0.09851385798305272
1684108623807588400,6.97158837890625,-0.39085108293294907,0.0815770439684391,0.40433220353573557
1684108623817606400,6.9816064453125,-0.554656328254938,0.22147651304602622,0.690156685590744
1684108623827624400,6.99162451171875,-0.4861141224265098,0.24985212818086147,0.7633411642670631
1684108623837641200,7.00164111328125,-0.3053583998907357,0.10214753831028937,0.617264760120213
1684108623847659300,7.0116591796875,-0.05808160209059715,-0.020331424888968466,0.35365123309046026
1684108623857677600,7.021677490234375,0.17932598199360072,0.0066606269329786295,0.019911153650283814
1684108623867694300,7.0316943359375,0.2784060955572873,0.2302607080042362,-0.317004340955615
1684108623877712100,7.041712158203125,0.2512713473290205,0.5554501089811325,-0.5499024117261171
1684108623887730400,7.05173046875,0.12160451845228672,0.7044809790194034,-0.6664975775837898
1684108623897747200,7.061747314453125,-0.002532148826122284,0.5052852713644505,-0.7964040604352951
1684108623907765200,7.07176513671875,-0.08260872510373592,0.025105215162038803,-0.9895435367912053
1684108623917783300,7.081783203125,-0.1530932971715927,-0.39735564252138134,-1.0739382685288785
1684108623927800000,7.091800048828125,-0.2641453688841313,-0.6134475399196148,-0.8844152291044592
1684108623937818400,7.101818359375,-0.3990928415775299,-0.5905366199314593,-0.5038964473545551
1684108623947836200,7.111836181640625,-0.4979658151965588,-0.4415963507860899,-0.12565379384309053
1684108623957853400,7.121853515625,-0.6163064364820718,-0.3533575108408928,0.1466056887179613
1684108623967871200,7.131871337890625,-0.7433347335487603,-0.23001111715734004,0.33661651165932416
1684108623977889300,7.14188916015625,-0.9047451926887035,-0.1310813718497753,0.551027324102819
1684108623987907000,7.151906982421875,-1.0933891111910343,-0.05820552073121071,0.8106132030516863
1684108623997924400,7.16192431640625,-1.1932284456241875,0.03837444657981395,1.1551935331970453
1684108624007942100,7.171942138671875,-1.1535434279024601,0.028467969593405723,1.392467334833741
1684108624017960200,7.181960205078125,-0.8950644142169505,-0.12260463540554047,1.4879606759518385
1684108624027977200,7.191977294921875,-0.23789281031787393,-0.538835658788681,1.4878516626194118
1684108624037995000,7.2019951171875,1.117646258156374,-1.3004063062518834,1.7137173505350947
1684108624048013300,7.212013427734375,2.1593810968905687,-1.8749995071202517,1.9428142754569648
1684108624058030000,7.222030029296875,2.1834721665740013,-1.9963328074157236,1.9479443318217993
1684108624068048100,7.232048095703125,1.4754197588086126,-1.7149480613738297,1.728162932255864
1684108624078066200,7.242066162109375,0.46133740856647487,-0.9961036259591579,1.3746148672789333
1684108624088083200,7.252083251953125,-0.25016192478239535,-0.2872977694779634,1.0031059059366583
1684108624098101200,7.262101318359375,-0.5651501766752451,0.11195640014111995,0.6488116987675429
1684108624108119300,7.272119384765625,-0.660739379383251,0.24831775822043417,0.2606844878405332
1684108624118136000,7.282135986328125,-0.6683581107586621,0.2262701770633459,0.0365884399458766
1684108624128154400,7.292154296875,-0.6786579709768294,0.11894435933232307,-0.24874504372179507
1684108624138172200,7.302172119140625,-0.679359981766343,-0.0031967502146959302,-0.5165910937547683
1684108624148189200,7.312189208984375,-0.7090881805539131,0.024361118796467778,-0.6319923736527562
1684108624158207200,7.322207275390625,-0.7561294062573463,0.24138532860875128,-0.6261679052829742
1684108624168225300,7.332225341796875,-0.7974691323835402,0.6530933216094971,-0.5153767495289444
1684108624178242300,7.3422421875,-0.8176029158085584,1.0763199029684065,-0.31005379116535187
1684108624188260400,7.35226025390625,-0.7703594455312937,1.3178566227465867,-0.20367051498144864
1684108624198278100,7.362278076171875,-0.6879892053585499,1.1680518457263707,-0.2569751119285822
1684108624208296200,7.372296142578125,-0.5328793807327747,0.5831447561144828,-0.5480193744584918
1684108624218313200,7.382313232421875,-0.3261779736228287,-0.12433014402389525,-0.9033861792951822
1684108624228331300,7.392331298828125,-0.1572511475034058,-0.5838450133383274,-1.2048512980744241
1684108624238349300,7.402349365234375,-0.015686156366392968,-0.6818915460705757,-1.3579808356031775
1684108624248366000,7.412365966796875,0.07679565491080284,-0.22357903828322886,-1.3499196942225098
1684108624258384100,7.422384033203125,0.06342990431599319,0.5101707053184509,-0.9918646732151508
1684108624268402200,7.432402099609375,0.009424830949306488,1.1232394750535488,-0.545568474175036
1684108624278419200,7.442419189453125,0.005370514057204127,1.3844120386719703,-0.30910306631177664
1684108624288437200,7.452437255859375,0.1065033223669976,1.246263797175884,-0.4574181892961263
1684108624298455300,7.462455322265625,0.27956754055209454,0.6238000071078539,-0.854333102312684
1684108624308472000,7.47247216796875,0.4517098215866834,-0.03887888897061348,-1.0886796183258294
1684108624318490400,7.482490478515625,0.41780813650675114,-0.3282499575912952,-0.986442648166418
1684108624328508200,7.492508056640625,0.18499014523513613,-0.2070546044617891,-0.5796633437395096
1684108624338525200,7.502525146484375,-0.11988251696527004,0.1998755066126585,-0.05286854361742735
1684108624348543200,7.512543212890625,-0.2885193471621722,0.6258756443381309,0.22866934715956447
1684108624358561300,7.522561279296875,-0.460555245212838,0.7590045963674783,0.24827976429760454
1684108624368578300,7.532578369140625,-0.6098491501014679,0.5860305406838655,0.06081219609826803
1684108624378596400,7.542596435546875,-0.6875783595353364,0.3016074498593807,-0.24340894339084623
1684108624388614100,7.5526142578125,-0.7844481766384095,0.038141806867718696,-0.47456484666913745
1684108624398632200,7.562632080078125,-0.9258674026291817,-0.23317396510243416,-0.5999763561889528
1684108624408649200,7.572649169921875,-1.0676046085279434,-0.4113917666584253,-0.5504316962972283
1684108624418667300,7.582667236328125,-1.1644213802695274,-0.45580549340248105,-0.46346039206981654
1684108624428685300,7.592685302734375,-1.3709160127609967,-0.5213970327317714,-0.21895137848258017
1684108624438702000,7.6027021484375,-2.8662539394825695,-0.9863315890073776,0.27772914614379407
1684108624448720100,7.61272021484375,-7.807247868141531,-3.149817783129215,0.6143672851130366
1684108624458738400,7.622738525390625,-1.0996394037574528,-0.8357552430927753,3.0002137893781065
1684108624468755200,7.632755126953125,2.097099266631156,1.4809978512018918,4.757881340798735
1684108624478773000,7.64277294921875,-0.17710370283424853,1.5126666626632213,4.801890286134183
1684108624488791300,7.652791259765625,-0.24886370166540145,1.4883686722308396,4.730276125514507
1684108624498808000,7.66280810546875,1.211297113212943,1.1204150652825833,4.298004944695532
1684108624508826400,7.672826416015625,1.5758165079288184,0.7905079881340265,3.1777193510115143
1684108624518844200,7.68284423828125,1.6452816738210618,0.5638794991523027,1.9309572489246725
1684108624528861200,7.692861083984375,2.0414434303827584,0.13268763800263403,1.2914154828056692
1684108624538879200,7.702879150390625,2.2607005138136445,-0.36449615997076035,1.0209355771377682
1684108624548897300,7.712897216796875,2.7856062853187322,-0.9807622644424437,1.2470704373836516
1684108624558914300,7.722914306640625,0.6739107764497398,-0.5904132858127356,0.009738719204068184
1684108624568932400,7.732932373046875,0.875451439795643,-0.24958617072105407,-0.48192339273840185
1684108624578950100,7.7429501953125,4.016671344318985,-0.9426941073328257,1.2620467649802565
1684108624588967400,7.752967529296875,1.5887141295552252,0.10669394956827163,-0.6470426432684063
1684108624598985200,7.762985107421875,0.3796551506578922,0.6992401557564735,-2.68081553902328
1684108624609003300,7.773003173828125,-1.0947183139681815,0.3341156347543001,-4.67171901486665
1684108624619021000,7.78302099609375,-2.0460732821404934,0.4449123434662819,-5.936957269364595
1684108624629038300,7.793038330078125,-1.9987088888972997,0.7764666032999753,-6.313541926535963
1684108624639056100,7.80305615234375,-1.633532929968834,0.8635708862572908,-6.394864703482389
1684108624649074400,7.813074462890625,-1.1492700614321976,0.8750468045175075,-6.570960106056928
1684108624659091200,7.82309130859375,-0.6301795520771295,0.8875871371388435,-6.640355713844299
1684108624669109000,7.83310888671875,-0.03201894007325172,1.173204406183958,-6.455608218258619
1684108624679127300,7.843127197265625,0.663794748365879,1.4217179792374373,-6.211479143899679
1684108624689144000,7.85314404296875,1.375099582055956,1.4640245045691729,-5.604482387554645
1684108624699162400,7.863162353515625,2.329458992741257,1.47837159435153,-4.384770204956829
1684108624709180200,7.87318017578125,3.567825168535113,1.4304150804340838,-2.740734293413162
1684108624719197200,7.883197265625,3.1784003190129995,1.3006108889132737,-2.1863643808841706
1684108624729215200,7.89321533203125,1.5824745045132933,1.2394225529789924,-2.26910608471781
1684108624739233300,7.9032333984375,0.2714836758829653,1.232319442975521,-1.39169547367841
1684108624749250000,7.91325,-0.8278858248919249,1.272851359850168,-0.1372328802168369
1684108624759268400,7.923268310546875,-2.253472169995308,1.3858254126012324,1.0586886769488453
1684108624769286100,7.9332861328125,-2.993348287522793,1.4218079956084488,2.075287101665139
1684108624779303400,7.943303466796875,-3.266877059367299,1.31218091519773,2.7675261464878913
1684108624789321200,7.9533212890625,-3.2387036888062952,1.155518527367711,2.8955004922330376
1684108624799339300,7.96333935546875,-3.149032770231366,0.6969903310030698,2.8377880157157778
1684108624809357000,7.973357177734375,-2.9164988565981385,0.01882861911058426,2.882859329585731
1684108624819374300,7.983374267578125,-2.765993822354078,-0.655206368240714,3.161957133734226
1684108624829392100,7.99339208984375,-2.6932489041388035,-1.2134575061172246,3.5878017886370417
1684108624839410400,8.003410400390624,-2.0386428398787975,-1.8722464090198276,3.8267897007152434
1684108624849427200,8.01342724609375,-1.078169330227375,-2.4631606300920246,3.786094702233374
1684108624859445200,8.0234453125,-0.6187877319037914,-2.3692057505875823,3.7095688041746615
1684108624869463300,8.03346337890625,-0.489905331403017,-1.8442051404058932,3.6246976870968934
1684108624879480000,8.04347998046875,-0.3078828768670559,-1.2844324920505283,3.3211493323028085
1684108624889498000,8.053498046875,0.005697919380664825,-0.9288491218537092,2.687106163600087
1684108624899516200,8.06351611328125,0.35105559057407076,-0.8217156118243932,1.8961518930032848
1684108624909533200,8.073533203125,0.7502297537595033,-0.8427122226238251,1.224001696485281
1684108624919551200,8.08355126953125,1.8012492112547158,-0.8189403018921613,0.35488837366998194
1684108624929569300,8.0935693359375,3.7391011881291862,-0.6749503486305475,-1.0784349954262376
1684108624939586000,8.1035859375,2.697256970736384,-0.5861947913348674,-1.0151797900900243
1684108624949604400,8.113604248046874,0.36500527853667736,-0.4461602977007627,0.09766454767733812
1684108624959622100,8.1236220703125,-0.3849580063063651,-0.07922317431867122,0.25402736803889275
1684108624969639400,8.133639404296876,-0.5360690436195582,0.32136428973078723,-0.20701631827801464
1684108624979657200,8.1436572265625,-0.6325408013157546,0.5274830746471881,-0.6531897677212953
1684108624989675300,8.15367529296875,-0.711949415203929,0.4021078054845333,-0.9415957907021045
1684108624999692300,8.1636923828125,-0.8532183460038155,0.08666121536493301,-0.9990677364617585
1684108625009710300,8.17371044921875,-0.962594739589095,-0.1177139407545328,-0.7414324070587753
1684108625019728100,8.18372802734375,-1.0433551334124058,-0.10342588768303394,-0.24227701675146818
1684108625029745200,8.1937451171875,-1.060457147926092,0.1122071600317955,0.30570757865458725
1684108625039763200,8.20376318359375,-0.9962976872265338,0.46413668389618395,0.6305708164170384
1684108625049781200,8.21378125,-0.8439882339090108,0.7153916646122932,0.8635746856495737
1684108625059799300,8.22379931640625,0.02508117669932544,0.5509411071240902,1.1019625860080122
1684108625069816000,8.233816162109376,3.2938176732629536,0.07798164982497692,1.5112930362224577
1684108625079834000,8.243834228515626,5.937288693276047,-0.03925765915513038,1.3939862149640916
1684108625089852400,8.253852294921876,5.776354034954309,-0.06126841543316841,0.8338432719916105
1684108625099869200,8.263869140625,3.9508389819711445,-0.35991584644317626,0.5902154251530766
1684108625109887200,8.27388720703125,1.5886702904134988,-0.7338660634577274,0.6088610889121889
1684108625119905300,8.2839052734375,-0.12245382875800132,-0.9756026897221803,0.7375961898967623
1684108625129922000,8.293922119140625,-1.0564461587190628,-1.0502134018093348,0.9971563498824835
1684108625139940400,8.3039404296875,-1.3945400494545697,-0.9880132584840059,1.3443681975752115
1684108625149958100,8.313958251953125,-1.3737199642658233,-0.8885024984180927,1.643689290063083
1684108625159975200,8.32397509765625,-1.2941495839446782,-0.6527344251692294,1.9370234170958398
1684108625169993200,8.3339931640625,-1.1251105296224355,-0.40927345933020115,2.06369398676604
1684108625180011300,8.34401123046875,-0.8913432748019695,-0.393881828930974,2.0784917429253458
1684108625190028300,8.3540283203125,-0.6106798287719488,-0.5253039770424366,1.9037007009476423
1684108625200046300,8.36404638671875,-0.4459609757363796,-0.6849521026849746,1.5172864314183592
1684108625210064100,8.374064208984375,-0.368467401689291,-0.6657184099048375,1.135702943046391
1684108625220081400,8.384081298828125,-0.3798299227029085,-0.4410901548296213,0.7854974664956331
1684108625230099200,8.39409912109375,-0.4260539137393236,-0.0339893633633852,0.5100777663379907
1684108625240117200,8.4041171875,-0.4581505952239036,0.3712982412010431,0.2835477692946792
1684108625250134300,8.41413427734375,-0.46127888331227,0.6206804137825965,-0.0948155879870057
1684108625260152000,8.424152099609374,-0.42760165463797745,0.6618208179444074,-0.5973065524578094
1684108625270170000,8.434170166015624,-0.372954118649289,0.5795668976277113,-1.0415618933200836
1684108625280187100,8.444187255859376,-0.33791561155915256,0.5073761061638593,-1.3662328233808279
1684108625290205200,8.454205078125,-0.324216829617694,0.5038415022969246,-1.669635339963436
1684108625300223200,8.46422314453125,-0.3170779907137155,0.5860732107818126,-2.0477084821268914
1684108625310241300,8.4742412109375,-0.3133680302798748,0.7997539553850889,-2.3110823551818727
1684108625320258000,8.484258056640625,-0.3213192815452814,1.074405593779683,-2.48717162027657
1684108625330276400,8.4942763671875,-0.3603103987187147,1.3091343871086836,-2.608464004039764
1684108625340294100,8.504294189453125,-0.5287420617323368,1.3608084602445363,-2.543707454229891
1684108625350311200,8.514311279296875,-0.7293903793483972,1.1660592106044292,-2.4346897378891703
1684108625360329200,8.5243291015625,-0.8432925797950476,0.6665051763683557,-2.2807558982402085
1684108625370347300,8.53434716796875,-0.918584332948923,0.11742577146291733,-1.8036837449252605
1684108625380364300,8.5443642578125,-0.9136141433209181,-0.2109504428565502,-1.2441077881857752
1684108625390382300,8.55438232421875,-0.9365092812180519,-0.3563070082962513,-0.8027388164147734
1684108625400400100,8.564400146484376,-1.0056582207679747,-0.37373219034969807,-0.45328883440643547
1684108625410417400,8.57441748046875,-1.1270587410807609,-0.29656010334193705,-0.1306593470454216
1684108625420435200,8.584435302734375,-1.223703005799651,-0.22329086899161338,0.11582008983194828
1684108625430453200,8.594453369140625,-1.2969061891764402,-0.1748784280002117,0.49177287884056564
1684108625440470300,8.60447021484375,-1.401727330610156,-0.18312427829802036,0.8046329595983028
1684108625450488300,8.61448828125,-1.4228700718820093,-0.2694984934151172,1.092943705511093
1684108625460506000,8.624506103515625,-1.3292097914099692,-0.4325666566342115,1.1944801261857152
1684108625470523100,8.634523193359374,-1.1490578069210051,-0.6420072794497013,1.1337976939469576
1684108625480541200,8.644541259765624,-0.9008440935969352,-0.7986579768419265,1.009475733229518
1684108625490559000,8.65455908203125,-0.4260311173856258,-0.812251033386588,0.970000631931424
1684108625500576300,8.664576171875,0.1444324363321066,-0.5096317761361598,1.2417387209668755
1684108625510594000,8.674593994140626,1.2279372823685406,-0.04763327331244945,1.4436886957660318
1684108625520612400,8.6846123046875,3.00707929123342,0.1643903517335653,1.22653063044101
1684108625530629000,8.694629150390625,4.575590006193519,0.07523848859667777,0.780583390969038
1684108625540647200,8.704647216796875,4.3993724385440345,-0.09272855257987976,0.354959100818634
1684108625550665200,8.714665283203125,2.7014620212107894,-0.24968846205174922,0.08757190046906471
1684108625560683300,8.724683349609375,1.1258382593750953,-0.2703378668487072,-0.0004091653227806091
1684108625570700300,8.7347001953125,0.14037468537390232,-0.12662380791902542,0.16533435458540915
1684108625580718300,8.74471826171875,-0.5063946573784575,0.012183774268627165,0.46927930748164653
1684108625590736100,8.754736083984374,-0.98443181980066,0.14092355142831803,0.913043357695639
1684108625600753400,8.76475341796875,-1.1370721855729817,0.0823129570275545,1.281747490750253
1684108625610771200,8.774771240234376,-1.0208680648595094,-0.2148848596960306,1.2208604758501052
1684108625620789200,8.784789306640626,-0.6998036348581314,-0.7361673261374234,0.7774974076524377
1684108625630806300,8.79480615234375,-0.07592347518615424,-1.1640887873142958,0.2575441439881921
1684108625640824300,8.80482421875,0.765788630484417,-1.283435882228613,-0.07207330256402492
1684108625650842000,8.814842041015625,1.4693500835061073,-0.9850853883385657,-0.030888182477653025
1684108625660859100,8.824859130859375,1.6940251003324984,-0.40574470068216323,0.30226649829000235
1684108625670877200,8.834877197265625,1.4304571660101413,0.1544575712621212,0.4793278232872486
1684108625680895200,8.844895263671875,0.8910527674227953,0.5982663374006748,0.49069151334464545
1684108625690912300,8.854912353515624,0.31278241241164506,0.8811685022681951,0.43108021746873854
1684108625700930000,8.864929931640624,-0.1664776794016361,0.9078361444413662,0.18432050234526395
1684108625710948400,8.8749482421875,-0.435182392090559,0.5561813458651303,-0.1781295387506485
1684108625720965000,8.884965087890626,-0.553158783173561,-0.06786708304584026,-0.41609453752189873
1684108625730983200,8.894983154296876,-0.5977583878785372,-0.5594266113966703,-0.5810273255690932
1684108625741001200,8.905001220703125,-0.6086235538292676,-0.7341501410961151,-0.3807239489331841
1684108625751018200,8.915018310546875,-0.6574719750851392,-0.564328411963582,-0.06339432154595852
1684108625761036000,8.9250361328125,-0.6780898887652903,-0.17458499801158903,0.14308452885448933
1684108625771054300,8.935054443359375,-0.6862485722362994,0.13212357437908648,0.13645429705977438
1684108625781071000,8.945071044921875,-0.6814888104885816,0.20934651479125022,-0.05673340235203504
1684108625791089400,8.95508935546875,-0.6104021808743476,0.16432371623814104,-0.3495265543758869
1684108625801107200,8.965107177734374,-0.4509557883489877,0.11409750382304192,-0.6310007322669029
1684108625811124200,8.975124267578124,-0.13320256525482982,0.16572539972960948,-0.8565966633304953
1684108625821142300,8.985142333984374,0.4826766222584992,0.36703006236255165,-1.015452761812508
1684108625831160300,8.995160400390626,1.2151625564694404,0.535696776241064,-0.8230629347801208
1684108625841178000,9.00517822265625,1.6773422610789537,0.49991117711067196,-0.47206104715466496
1684108625851195100,9.015195068359375,1.5723346571624277,0.23774960245490073,-0.18351941509544847
1684108625861213200,9.025213134765625,1.076508192082122,-0.06104629711508751,0.06442863302975893
1684108625871231200,9.035231201171875,0.6243512843150645,-0.2248147175580263,0.2703247151061892
1684108625881248300,9.045248291015625,0.16675072418935596,-0.2564595636218786,0.6470145862177014
1684108625891266000,9.05526611328125,-0.14588731131553648,-0.09108078537285327,0.8814704078242183
1684108625901284000,9.0652841796875,-0.2822866633176803,0.01980535518825054,0.8870607751771807
1684108625911301600,9.075301513671874,-0.3618165654979646,0.013154080605506897,0.7130208438277245
1684108625921319700,9.085319580078124,-0.26039040026478466,-0.15119418555200098,0.2974000612974167
1684108625931337700,9.095337646484374,-0.1678952180493623,-0.4118079462438822,-0.07766717704832553
1684108625941354800,9.105354736328126,-0.15047646573670206,-0.5518336720496416,-0.2714016966879368
1684108625951372500,9.11537255859375,-0.20936587707884607,-0.42784605785310265,-0.14042203164696693
1684108625961390800,9.125390869140626,-0.3617313714325428,-0.10730886659622192,0.22886165486127136
1684108625971407600,9.13540771484375,-0.4900462742436677,0.22485329600274562,0.6079053956225514
1684108625981425700,9.14542578125,-0.5845587876308709,0.49896600521504875,0.8586936356097459
1684108625991443700,9.155443603515625,-0.6296862156022339,0.5816770216494799,0.7363146256536245
1684108626001460700,9.165460693359375,-0.5691892229329795,0.4709878649652004,0.3449348426714539
1684108626011478800,9.175478759765625,-0.42895365376882255,0.28632161792218686,-0.22286387575119732
1684108626021496800,9.185496826171875,-0.1768488512903452,0.10600187565088272,-0.6988844741865992
1684108626031513600,9.195513671875,0.06121113228797912,0.08773615112006664,-0.975487538909912
1684108626041532000,9.205531982421874,0.30364743125438687,0.26803835773468015,-1.0934703597337008
1684108626051549700,9.2155498046875,0.583511835861206,0.565372952580452,-1.1050088218361138
1684108626061566700,9.225566650390626,0.6949795026373118,0.8383867606401443,-1.0645724742904306
1684108626071584800,9.235584716796875,0.5771048914283514,1.0252467183351517,-0.8844266272813082
1684108626081602800,9.245602783203125,0.3742488346349448,1.0946236214220524,-0.6580781242847442
1684108626091619800,9.255619873046875,0.18765483439974487,0.9253104263335465,-0.6109174369201064
1684108626101637600,9.2656376953125,0.08330364856533706,0.49638183394074437,-0.855377642929554
1684108626111655700,9.27565576171875,0.043189810972288245,-0.03477203817367554,-1.2290262466490267
1684108626121673700,9.285673828125,-0.029188100561499595,-0.5266928010523318,-1.4360332125768065
1684108626131690800,9.295690673828124,-0.1502267287593335,-0.8170932127207517,-1.3477245222657919
1684108626141708500,9.30570849609375,-0.29099472429975864,-0.7743132246583699,-0.8424789983898401
1684108626151726800,9.315726806640624,-0.4333334762882441,-0.47553018456995483,-0.15081921475976703
1684108626161743600,9.32574365234375,-0.5537047266185283,-0.08134674234390259,0.4985165078818798
1684108626171761700,9.33576171875,-0.6555529897212982,0.24878128407895564,1.0384496065184474
1684108626181779700,9.34577978515625,-0.7282369715295731,0.41502632376849646,1.4313018001407385
1684108626191796700,9.355796630859375,-0.7610130135804414,0.45799277431368823,1.670297603264451
1684108626201814500,9.365814453125,-0.741817314723134,0.3868453544229269,1.7237664508625865
1684108626211832800,9.375832763671875,-0.6834651520628482,0.20497136844694613,1.5898115694031119
1684108626221849600,9.385849609375,-0.5735475642729551,-0.02906710453033447,1.288433836646378
1684108626231868000,9.395867919921875,-0.4621387880772352,-0.22460487419962882,0.9358309435650706
1684108626241885700,9.4058857421875,-0.3613133652161807,-0.3862742765367031,0.6127843998357654
1684108626251902700,9.41590283203125,-0.27134207545518874,-0.4215302988350391,0.2502954880341887
1684108626261920800,9.425920654296876,-0.21296002911329268,-0.33325989470779893,-0.13496259719729423
1684108626271938800,9.435938720703126,-0.1817326047439128,-0.07967676330506801,-0.41898879765868186
1684108626281955800,9.445955810546875,-0.17598317437171934,0.2655196529120207,-0.6608022885516286
1684108626291974000,9.455973876953125,-0.21228256824314592,0.6306693083554505,-0.8520949679970741
1684108626301991700,9.46599169921875,-0.2754214537233114,0.892278509825468,-1.0274679015159607
1684108626312008700,9.4760087890625,-0.3166758396536112,0.9869260477691888,-1.235292029045522
1684108626322026800,9.48602685546875,-0.3642009033512324,0.8759405384868383,-1.449379893144965
1684108626332044500,9.49604443359375,-0.3600836772907525,0.6571364595204592,-1.6507330710947512
1684108626342061800,9.506061767578124,-0.324712431114912,0.45193478944897647,-1.8363900827407835
1684108626352079600,9.51607958984375,-0.2568921098202467,0.2627735690742731,-1.8731386816844342
1684108626362097700,9.52609765625,-0.22463702290356158,0.08991524872481822,-1.6069623184293507
1684108626372114700,9.53611474609375,-0.2673398540765047,-0.0648544572263956,-1.2317588864833116
1684108626382132700,9.5461328125,-0.3564227436304092,-0.19550328287780283,-0.886761792230606
1684108626392150500,9.556150634765626,-0.46474283309578895,-0.2604892575293779,-0.5891287989601492
1684108626402167800,9.566167724609375,-0.576002994601056,-0.27423078263401984,-0.3461535708114505
1684108626412185600,9.576185546875,-0.7210194413661957,-0.23274843316674232,-0.04982201552838087
1684108626422204000,9.586203857421875,-0.8879658342581241,-0.16461188552975653,0.3319716084629297
1684108626432220700,9.596220703125,-1.0242904405236244,-0.10762217032909392,0.6798004190102219
1684108626442238700,9.60623876953125,-1.1204892995625733,-0.07927052059173584,1.0330860336586833
1684108626452256800,9.6162568359375,-1.1392149697553366,-0.1297878249078989,1.312443950048089
1684108626462274800,9.62627490234375,-1.096216370506212,-0.2418237200260162,1.4263070605933665
1684108626472291600,9.63629150390625,-0.9775789582312107,-0.37291853587925433,1.416658650021255
1684108626482310000,9.646309814453126,-0.7996955031961203,-0.5209498734861612,1.3845195906996726
1684108626492327700,9.65632763671875,-0.5058054958462714,-0.6635650312632322,1.3785709114283322
1684108626502344700,9.6663447265625,-0.207373753413558,-0.7383207047790289,1.4577093300729989
1684108626512362800,9.67636279296875,0.04402271813247353,-0.6988093631237745,1.5673551151841878
1684108626522380800,9.686380859375,0.32495566528625786,-0.6250052912443876,1.5700862937137483
1684108626532397800,9.696397705078125,0.8691736016351729,-0.4992687875539064,1.4807462145283818
1684108626542415600,9.70641552734375,1.6624603337675332,-0.2584165429085493,1.245036885729432
1684108626552433700,9.71643359375,2.347199670484662,-0.026140987950563428,0.8206292778924107
1684108626562450700,9.72645068359375,2.477900518584251,0.017252748095989225,0.2678112709805369
1684108626572468700,9.73646875,2.0824673685580493,-0.07910568541884422,-0.26661270884573457
1684108626582486500,9.746486572265624,1.4727707056045531,-0.13415537246763706,-0.629379853066802
1684108626592503800,9.75650390625,0.8574533532250672,-0.10770049626231193,-0.7211404373973608
1684108626602521600,9.766521484375,0.2618448003241792,0.031057401564717292,-0.5702230229601264
1684108626612539600,9.77653955078125,-0.21542196224741636,0.2061141087412834,-0.14631021290272472
1684108626622556700,9.786556640625,-0.4545967021346092,0.30146073486506936,0.32586364697664977
1684108626632574700,9.79657470703125,-0.5661041529318317,0.24530220979154108,0.7230874798119068
1684108626642592800,9.8065927734375,-0.556321558053419,0.06187924080789089,0.9444023725554347
1684108626652609800,9.81660986328125,-0.45937279396262015,-0.2948351792454719,0.9760843357592821
1684108626662627600,9.826627685546875,-0.3239986933549866,-0.6308008257806301,0.8816258906468748
1684108626672646000,9.83664599609375,-0.1275613079648465,-0.7913596365272998,0.7408402863845228
1684108626682662700,9.84666259765625,0.09115213357601314,-0.6864701060324907,0.5023237912103533
1684108626692680700,9.8566806640625,0.2397586041897535,-0.3108803051173687,0.25098259351551533
1684108626702698800,9.86669873046875,0.3048672553729266,0.12405541873574256,0.032384850776195524
1684108626712715500,9.876715576171875,0.22828564507160334,0.4433592688053846,-0.1490738323971629
1684108626722733800,9.88673388671875,0.08361402968876064,0.507852491503954,-0.16170827304273844
1684108626732751600,9.896751708984375,-0.09073482147939503,0.3271305981725454,-0.340469972217083
1684108626742768600,9.9067685546875,-0.24048224228918552,0.03045651306211948,-0.6013280630588531
1684108626752786700,9.91678662109375,-0.3231009042650461,-0.19997195272445678,-0.9007631373152136
1684108626762804700,9.9268046875,-0.38524142635762687,-0.30263913099467754,-1.051841003011167
1684108626772821800,9.93682177734375,-0.42515722062792627,-0.2747165203243494,-1.0381652366191148
1684108626782839800,9.94683984375,-0.41995150521099567,-0.09326572819650172,-0.941514834420383
1684108626792857600,9.956857666015624,-0.39635033793635666,0.14288228428065777,-0.7899173287644982
1684108626802875000,9.966875,-0.2830740873683244,0.4113502656042576,-0.6146990012854338
1684108626812892700,9.976892578125,-0.024163550397753714,0.6222510241001844,-0.4092436487138271
1684108626822910700,9.98691064453125,0.3765221498617902,0.5560936675816774,-0.23800153138935565
1684108626832927700,9.996927734375,0.8142332201797514,0.29360125353634353,-0.04799976853728294
1684108626842945800,10.00694580078125,1.0360621999252586,0.0010708441019058226,0.21278788741677998
1684108626852963600,10.016963623046875,0.9842342514019459,-0.24477614009082316,0.47840720131099224
1684108626862982000,10.02698193359375,0.7102069554507732,-0.493827473282814,0.6347936948090791
1684108626872998700,10.03699853515625,0.36718320709764957,-0.6472369967967272,0.7426654559850693
1684108626883016700,10.0470166015625,0.11391400048229842,-0.6682067195892334,0.8946645281791686
1684108626893034800,10.05703466796875,-0.08291150744259357,-0.5299754759848118,1.025533134061098
1684108626903051300,10.06705126953125,-0.14406309156306088,-0.3030237463980913,0.9837950562670826
1684108626913069300,10.0770693359375,-0.11541735424995422,-0.12354162399470806,0.6713970400631427
1684108626923087400,10.08708740234375,0.03239540870282799,-0.09067804979085922,0.23439064741581678
1684108626933104400,10.0971044921875,0.23546010327823458,-0.06295709917247296,-0.0865767519518733
1684108626943122400,10.107122314453125,0.43478192153088746,0.013375614401698111,-0.18558628449738024
1684108626953140200,10.11714013671875,0.49510399602465327,0.12045710198283195,-0.2196001977801323
1684108626963157500,10.127157470703125,0.39217970118820666,0.12949497944116592,-0.2490124624863267
1684108626973175300,10.13717529296875,0.18896251946482806,-0.0002671265035867691,-0.29552257698774337
1684108626983193300,10.147193359375,-0.034731048576161265,-0.1858802990078926,-0.30717034468352794
1684108626993210400,10.15721044921875,-0.23213176257312296,-0.19192542439103125,-0.18519377804845572
1684108627003228400,10.167228515625,-0.37506957643330097,0.0736643711477518,0.00904518398195505
1684108627013246200,10.17724609375,-0.3822393219321966,0.4053220913559198,0.14483108026087282
1684108627023263500,10.187263427734376,-0.29154088694043456,0.5311866053402423,0.155625445997715
1684108627033281300,10.19728125,-0.046563013732433316,0.32100305520296096,-0.01313479138314724
1684108627043299300,10.20729931640625,0.25391755098886787,-0.11003624573349952,-0.2193909389436245
1684108627053316400,10.21731640625,0.5074075972806662,-0.34770343060195447,-0.19042086504697797
1684108627063334100,10.227334228515625,0.6675841307114809,-0.25224808340668675,0.018146482065320015
1684108627073352400,10.2373525390625,1.240715515398979,0.3402203813701868,0.00952449193149805
1684108627083369200,10.247369140625,1.8980811075001953,0.43304479553997516,-0.7786234890729189
1684108627093387300,10.25738720703125,1.683375111502409,0.7191156535714864,-0.6095651455283164
1684108627103405300,10.2674052734375,1.285576401388645,0.7742915973484515,-0.7739487752601504
1684108627113422300,10.27742236328125,0.580195843181014,0.4314513888686895,-1.1509332454040646
1684108627123440400,10.2874404296875,-0.12450782954520545,0.2946159835368395,-1.0690955046728252
1684108627133458400,10.29745849609375,-0.876332752674818,0.347926133441925,-0.8080334156915545
1684108627143475200,10.30747509765625,-1.548072322565317,0.44873336305916306,-0.5366118452593683
1684108627153493500,10.317493408203125,-1.9713924274265764,0.41027591437101363,-0.2419680969327688
1684108627163511300,10.32751123046875,-2.0810008031368254,0.324652809882164,0.1369032098710537
1684108627173528300,10.3375283203125,-1.9669103135764598,0.10962240423560142,0.46715047875940796
1684108627183546400,10.34754638671875,-1.7769477136909961,-0.09952712667882442,0.6962082407146691
1684108627193564400,10.357564453125,-1.604925259643793,-0.2499287005484104,0.8832727810710668
1684108627203581400,10.36758154296875,-1.4689678061902522,-0.42010464994609353,0.8900462207287549
1684108627213599500,10.377599609375,-1.319159522038698,-0.4446037159085274,0.8194228247120976
1684108627223617300,10.3876171875,-1.2252128258407116,-0.2755798591554165,0.7788149199917912
1684108627233635300,10.39763525390625,-1.1716261970818043,-0.1315384679675102,0.6118833593428135
1684108627243652400,10.40765234375,-1.1103010830253361,-0.09023965837359428,0.3394280619487166
1684108627253670400,10.41767041015625,-1.0299392600655555,0.0021411036819219587,0.11750322061330079
1684108627263688400,10.4276884765625,-0.9180383895039558,0.04673135603666305,-0.14279928217232227
1684108627273705200,10.437705322265625,-0.7834417030096054,0.13827800535559653,-0.3377969536155462
1684108627283723300,10.44772314453125,-0.620213380792737,0.2309364153087139,-0.48064387432187794
1684108627293741300,10.4577412109375,-0.44603108183052387,0.24675123955607411,-0.6909919673711061
1684108627303758300,10.46775830078125,-0.23391744041349738,0.19923194801211355,-0.902776522964239
1684108627313776000,10.477776123046874,-0.0015530746608972549,0.14587971253097057,-1.1344643411621451
1684108627323794400,10.48779443359375,0.2768728946406394,0.14296528638899325,-1.281723817613721
1684108627333811200,10.497811279296876,1.0414859785396604,0.26586159821748734,-1.1655082987233996
1684108627343829500,10.50782958984375,2.1347692182034255,0.3396966497570276,-0.6358303443804383
1684108627353847300,10.517847412109376,2.8044582853049036,0.30627135001718997,0.09886427885591983
1684108627363864300,10.5278642578125,2.7381729184925554,0.24539456425011155,0.7979398917004465
1684108627373882400,10.53788232421875,2.301495319408178,0.13841244539022446,1.266527417525649
1684108627383900400,10.547900390625,1.7086054143488407,-0.08829904569983482,1.5087772540092468
1684108627393917400,10.55791748046875,1.0689473283737898,-0.26503216165602206,1.5295385947480797
1684108627403935500,10.567935546875,0.5063403333753347,-0.31333120540082454,1.343132810561359
1684108627413953300,10.577953369140625,0.0324643457531929,-0.32725393229126926,1.1247802747547626
1684108627423970300,10.58797021484375,-0.3533195169180631,-0.3797638717293739,0.8631032687455416
1684108627433988400,10.59798828125,-0.5570727052142843,-0.4432663298249244,0.5411360446855425
1684108627444006400,10.60800634765625,-0.6120517381796613,-0.47361762894690035,0.21043138741850853
1684108627454023400,10.6180234375,-0.5726899975955486,-0.4665601116508245,0.02372983515560627
1684108627464041200,10.628041259765626,-0.4766863688677549,-0.2810352019518614,0.13771101912260056
1684108627474059300,10.638059326171875,-0.2587649544874206,0.045398061606287954,0.41219548425674435
1684108627484076300,10.648076171875,0.11552549079954623,0.32624563203155993,0.651948243227601
1684108627494094300,10.65809423828125,0.6305781229406595,0.5031821616053581,0.8687778072506189
1684108627504112000,10.668112060546875,1.2720359518140554,0.3688204529106617,0.9635232526108622
1684108627514129400,10.67812939453125,1.7361989391952752,-0.1791045212626457,0.7713529135480522
1684108627524147200,10.688147216796875,1.7681342926383017,-0.7411164729773998,0.479524807164073
1684108627534165500,10.69816552734375,1.3302426415890454,-1.077621048694849,0.20888941867351532
1684108627544182300,10.708182373046874,0.6440805785924196,-0.9315735783815383,-0.06709668319523335
1684108627554200300,10.718200439453126,-0.15293142114076763,-0.2839946362793445,-0.1856704556494951
1684108627564218400,10.72821826171875,-0.7685603602200746,0.37905250858962536,-0.2809188820958137
1684108627574235400,10.7382353515625,-1.0382476542055605,0.8315542842715978,-0.47807723870426416
1684108627584253200,10.748253173828125,-1.1111503933310507,1.0943623401373623,-0.6779448542714118
1684108627594271500,10.758271484375,-1.173282732117176,1.1492191349625587,-0.9378907987043261
1684108627604289300,10.768289306640625,-1.171304125520587,0.8206564581602811,-1.3789867987528444
1684108627614306600,10.778306640625,-1.0603373209387064,0.22928864810168742,-1.7947899521127342
1684108627624324400,10.788324462890625,-0.8986527210325003,-0.28095862958431245,-1.909723029977083
1684108627634342400,10.79834228515625,-0.6052004840454086,-0.5273030419051646,-1.5058254184663296
1684108627644359400,10.808359375,-0.12180442493855953,-0.4187438829869032,-0.7801143121525644
1684108627654377200,10.818377197265624,0.536653675107099,-0.13966273771226406,0.12279285145401954
1684108627664395300,10.828395263671876,1.220374153637886,0.024142507609724997,1.0387629102513194
1684108627674412300,10.838412353515626,1.6378040314167737,0.030551790130138395,1.6352148917064069
1684108627684430300,10.848430419921876,1.6575567796349524,-0.03577390869259834,1.7427178195700048
1684108627694448000,10.8584482421875,1.2439093430042265,-0.12437807481884956,1.459993641617894
1684108627704465400,10.86846533203125,0.588248801255226,-0.06453764636218548,0.8916323208764195
1684108627714483200,10.878483154296875,-0.09865860021598637,0.16970950092971324,0.31462299877703187
1684108627724501200,10.888501220703125,-0.5813800845295191,0.3125327484995127,-0.18894290144890546
1684108627734518300,10.898518310546875,-0.8602847041934728,0.2588403212785721,-0.6107450029626489
1684108627744536300,10.908536376953125,-0.9182271900743245,0.11352116523981094,-0.9116831752583384
1684108627754554400,10.918554443359374,-0.8331248945891857,-0.126201198592782,-1.0886901397198439
1684108627764571400,10.9285712890625,-0.7428741302996873,-0.4186287321746349,-0.9476251339942217
1684108627774589200,10.938589111328126,-0.6079208854526281,-0.49010523788928984,-0.4340449124932289
1684108627784607500,10.948607421875,-0.45284719158615916,-0.3858785552173853,0.17206278605759143
1684108627794624300,10.958624267578125,-0.31442480932381,-0.3016869448363781,0.7279784667238592
1684108627804642600,10.968642578125,-0.09958261972572655,-0.21009704089760778,1.1994266426771878
1684108627814660400,10.978660400390625,0.1563929597714916,-0.2432411856085062,1.5824346108943224
1684108627824677000,10.988677001953125,0.4430115148136392,-0.493171055200696,1.9146999416068196
1684108627834695400,10.9986953125,0.7011836910396814,-0.9998954194575548,1.8494766510680316
1684108627844713500,11.00871337890625,0.631817309346795,-1.359378719702363,1.5088815911665558
1684108627854730200,11.018730224609374,0.13442425253689289,-1.3854296912819146,1.1438543930590153
1684108627864748300,11.028748291015624,-0.26137714627981185,-1.1529255882650613,0.7306772042885422
1684108627874766300,11.038766357421874,-0.31593057424426074,-0.8554974699169396,0.1727557367578149
1684108627884784000,11.0487841796875,-0.3798487004686147,-0.5171954893887043,0.008257832996547221
1684108627894801400,11.058801513671876,-0.4633972637057304,-0.2506570148229599,0.06430237630158663
1684108627904819500,11.0688193359375,-0.5374351443409919,-0.05542261201441288,0.16708412086218594
1684108627914837500,11.07883740234375,-0.5352279531529173,0.07114741989076137,0.24540333207845685
1684108627924854500,11.0888544921875,-0.4907084279468283,0.22430559899210928,0.25398499020189047
1684108627934872600,11.09887255859375,-0.41245735006332396,0.3668400927484035,0.2544964468553662
1684108627944890600,11.108890625,-0.30884609587602313,0.5362567482113838,0.2617179225414991
1684108627954907600,11.11890771484375,-0.23255020718090236,0.6896013897955418,0.20778028838783502
1684108627964925400,11.128925537109374,-0.17148586295247076,0.7768161473900079,0.1302428751990199
1684108627974943700,11.13894384765625,-0.124436453942582,0.7208148587048053,0.011658873611688613
1684108627984960500,11.14896044921875,-0.06134907945394515,0.485317419090867,-0.1837754356831312
1684108627994978600,11.158978515625,0.003878887259960174,0.10484861396253109,-0.4576251100450754
1684108628004996600,11.16899658203125,0.08343640809953212,-0.2868886041551828,-0.6244859435454011
1684108628015013600,11.179013671875,0.1713117484945804,-0.5651297914743423,-0.6597691461116075
1684108628025031700,11.18903173828125,0.309734642213583,-0.622923224273324,-0.5105336934119463
1684108628035049700,11.1990498046875,0.36194998261928557,-0.3393026820033789,-0.06498217525929212
1684108628045066500,11.20906640625,0.24726919901557265,0.08922200576364994,0.4729699786931276
1684108628055084800,11.219084716796875,0.016402268746495245,0.2985936549961567,0.8811214482560753
1684108628065102600,11.2291025390625,-0.16428111920543015,0.24084698394834994,1.0176008797571063
1684108628075119600,11.23911962890625,-0.2713818229436874,-0.07318623224198818,0.8746724182471632
1684108628085137700,11.2491376953125,-0.3209890266776085,-0.524984243568778,0.604095774206519
1684108628095155500,11.259155517578124,-0.3448854140391573,-0.9019125996112823,0.29858079551458355
1684108628105172700,11.2691728515625,-0.38324711073525247,-1.1352946545064448,0.08862696247994899
1684108628115190500,11.2791904296875,-0.4337946640592068,-1.1543483145445586,0.016615034714341163
1684108628125208600,11.28920849609375,-0.5048819512605667,-0.7409715115487575,0.10418313579112291
1684108628135226400,11.299226318359375,-0.5897949347186833,0.007063362514972686,0.3799760531753301
1684108628145243600,11.30924365234375,-0.6642325552612542,0.7191659224539995,0.5941539336457848
1684108628155261400,11.319261474609375,-0.6856243028581142,1.253421852236986,0.550581626161933
1684108628165279700,11.32927978515625,-0.6613993776619433,1.4993834027200936,0.292039411047101
1684108628175296500,11.339296630859375,-0.616439196016267,1.4548422502040863,-0.1333779583543539
1684108628185314600,11.349314453125,-0.5239368534076959,1.1820026296675203,-0.6080433427885175
1684108628195332600,11.35933251953125,-0.4701467379659414,0.8602163151323795,-1.1437608695566654
1684108628205349600,11.369349609375,-0.356837169650197,0.5674801539927721,-1.535192674987018
1684108628215367700,11.37936767578125,-0.26197745026051994,0.3183329592108726,-1.8552759849965572
1684108628225385700,11.3893857421875,-0.1799463058490306,0.2635182499617338,-2.1093165047779676
1684108628235402500,11.399402587890625,-0.13692659074664115,0.3875976340949535,-2.1306287573978304
1684108628245420800,11.4094208984375,-0.606430939155817,0.5394838935643435,-1.6960303026750683
1684108628255438600,11.4194384765625,-1.1394845074117184,0.5667670372873544,-1.2453937363430856
1684108628265455400,11.429455322265625,-6.257603766214848,-1.127168631196022,-1.648281001767516
1684108628275473700,11.4394736328125,2.208109179702401,-0.3897469210833311,3.7029999471783634
1684108628285491700,11.44949169921875,1.9087788809947668,0.8689619316458702,5.005687642365694
1684108628295508700,11.4595087890625,-0.9345411229502409,1.3915326843321323,4.166953675723075
1684108628305526500,11.469526611328124,1.6907944478482007,0.7067483394294977,5.254245639082789
1684108628315544600,11.479544677734374,0.39519349605143067,1.0126830048382283,3.784511232434213
1684108628325561600,11.4895615234375,1.2757314453311264,0.24202245746850967,3.2323999124869705
1684108628335579600,11.49957958984375,1.2975251978576183,-0.24682021313905714,2.487671386492252
1684108628345597400,11.509597412109375,1.3202414720565079,-0.7641442973434924,2.299817157062888
1684108628355614700,11.51961474609375,1.2386815253533423,-1.1165519601136444,2.028720288540423
1684108628365632500,11.529632568359375,0.8854390191942453,-0.9930956763148308,1.4225688969783483
1684108628375650600,11.539650634765625,1.4968886632949112,-1.1553566148042678,1.3441773511782287
1684108628385667600,11.54966748046875,2.3734049558430907,-1.4996920302778483,2.099795227716863
1684108628395685600,11.559685546875,1.4317454522550106,-0.09827391174733638,0.8089975845485925
1684108628405703400,11.569703369140624,-1.1129144803941249,0.12978957847356795,-2.140731926000118
1684108628415721700,11.5797216796875,-2.8237819944560525,-1.418904090860486,-4.700349189284443
1684108628425738500,11.589738525390626,-2.728870837140083,0.014182254609465598,-4.894327746812999
1684108628435756800,11.5997568359375,-2.4949744029819962,2.386976969599724,-5.356265167099237
1684108628445774600,11.609774658203126,-2.0723907957017422,1.9963784001231193,-6.316780762326717
1684108628455791400,11.619791259765625,-1.5699948160380124,1.8911638754576443,-6.861672067892551
1684108628465809700,11.6298095703125,-0.8485222971420735,1.6518512614697216,-7.0987342726051805
1684108628475827700,11.63982763671875,-0.16581008233837782,1.570010598129034,-7.217836452847719
1684108628485844700,11.6498447265625,0.6963659154944122,1.5825702199727296,-7.113714399594068
1684108628495862500,11.659862548828125,1.5841289937220513,1.3129460543513298,-6.455167488753795
1684108628505880600,11.669880615234375,3.230591694021225,1.0861100600987672,-4.830237259696424
1684108628515897600,11.679897705078124,4.626123092600703,1.0122031123667954,-3.2294273264169693
1684108628525915600,11.68991552734375,4.184161415633559,0.7778869914919138,-3.2939597120821476
1684108628535933400,11.699933349609376,2.7347037810772656,0.5643126298725605,-3.8876340455174443
1684108628545950700,11.70995068359375,1.4454314477801322,0.5881798276722431,-3.6160967397511
1684108628555968500,11.719968505859375,0.6434592318236827,0.7984311823487281,-2.4539605478093027
1684108628565986600,11.729986572265625,-0.19368067056052385,1.1621055045425892,-1.0773141747027635
1684108628576003600,11.740003662109375,-1.052801664736867,1.7366069354742764,0.4725096677049994
1684108628586021600,11.750021728515625,-1.9402175369620323,2.3009072903871535,1.9255498369231818
1684108628596039400,11.760039306640625,-2.729346637958288,2.6157915704488754,2.8445363209322094
1684108628606056700,11.770056640625,-3.0690824506819245,2.4130092364788056,3.154898739655316
1684108628616074500,11.780074462890624,-3.4787013624489305,1.8211048353254795,3.3315953229933974
1684108628626092800,11.7900927734375,-3.6496214082121847,0.9001596184641122,3.2230499003395434
1684108628636109600,11.800109619140626,-3.687887718242407,-0.09813304197192191,2.9991368077963587
1684108628646127600,11.810127685546876,-3.713713064372539,-1.1296773991465567,2.963666558225453
1684108628656145700,11.820145751953126,-3.603663959157467,-2.0700398486614224,3.0553079000905154
1684108628666162400,11.830162353515625,-3.323068902188539,-2.649705530488491,3.421709016899764
1684108628676180500,11.840180419921875,-2.964468229997158,-2.746597632488608,3.6981244500964876
1684108628686198500,11.850198486328125,-2.579344292539358,-2.6791847229510544,4.062265220758318
1684108628696216600,11.860216552734375,-2.0178969889700413,-2.4318717578589917,4.281712566064298
1684108628706233600,11.870233642578125,-1.2150748781859875,-1.856805678781867,4.193791413766146
1684108628716251600,11.880251708984375,-0.4116705835998058,-1.0512018283247948,3.8524703776776787
1684108628726269400,11.89026953125,0.32248306462764736,-0.37954935219585895,3.424557684329152
1684108628736286700,11.90028662109375,1.8380027786344288,0.06793664115071296,3.0496155336678026
1684108628746304500,11.910304443359376,10.87919389156103,0.7415028419464826,2.567204649673402
1684108628756322600,11.920322509765626,20.29450882450342,0.8299082706302404,1.3008224858373403
1684108628766339600,11.930339599609376,10.498667803287505,0.1422796422123909,1.0304609458521008
1684108628776357600,11.940357666015625,0.03569090658426285,-0.5013070153832435,1.646542925928533
1684108628786375400,11.95037548828125,-3.2833588230907913,-1.24304541965127,1.806867927919328
1684108628796392700,11.960392822265625,-3.3762849440693854,-1.0859990009397267,1.7659698080807924
1684108628806410500,11.970410400390625,-3.0272318524241446,-0.41428339644670487,1.5385709192484616
1684108628816428500,11.980428466796875,-3.0172143162786957,-0.007191957330703735,1.2311723187670112
1684108628826445600,11.990445556640625,-3.207970696890354,0.03454115202724933,0.9801125683620572
1684108628836463600,12.000463623046874,-3.0991081711113453,-0.1282628072977066,0.9032660600468516
1684108628846481700,12.010481689453124,-2.798092257404327,-0.3596405366331339,0.5193064901933073
1684108628856498400,12.02049853515625,-2.4011492873370646,-0.5641057091236115,0.09559212531745433
1684108628866516500,12.0305166015625,-1.998266405826807,-0.6551771421462297,-0.2736310631752014
1684108628876534800,12.04053466796875,-1.6213661068350076,-0.5645470231503248,-0.6591773176982998
1684108628886552600,12.050552490234375,-1.3311205934673547,-0.3144704385638237,-0.8984159896671772
1684108628896569600,12.060569580078125,-1.1288806958109139,0.11763853743076323,-0.9474187977671623
1684108628906586600,12.070586669921875,-0.9527350243538617,0.6177443603307008,-0.972065455506742
1684108628916604700,12.080604736328125,-0.8256395072698592,1.0357827253967522,-1.0676923598766326
1684108628926621700,12.09062158203125,-0.7821855654686689,1.1909247717916964,-1.2831813229456543
1684108628936639700,12.1006396484375,-0.6805950034540146,1.1767992158055305,-1.7551234198957681
1684108628946657500,12.110657470703124,-0.5025654179465026,0.978458663675189,-2.2721432604566214
1684108628956674800,12.1206748046875,-0.2511473556231707,0.7483265504866838,-2.8497876655891536
1684108628966692600,12.130692626953126,-0.005556465083360672,0.6266770238488912,-3.3992397031992674
1684108628976711000,12.1407109375,0.2435591655164957,0.5918114621728658,-3.7342856045410033
1684108628986727700,12.150727783203125,0.39938451800048347,0.6007020401149988,-3.465143669478595
1684108628996745700,12.160745849609375,0.31666005756258964,0.5678782133996486,-2.630729027339816
1684108629006763800,12.170763671875,0.1351291859358549,0.5225140540629625,-1.781009848563373
1684108629016780800,12.18078076171875,-0.043035314530320466,0.46184944974184033,-1.025490463963151
1684108629026798800,12.190798828125,-0.12385138406362384,0.38383623573482034,-0.477070399749279
1684108629036817000,12.20081689453125,-0.09350530910603702,0.29220307717621324,-0.13790215778052806
1684108629046833700,12.210833740234374,0.1350157886892557,0.19224574238657952,0.16131401302814483
1684108629056852000,12.22085205078125,0.7918564801335334,0.18926234266161918,0.6596715309560298
1684108629066869800,12.230869873046874,1.6657248885214329,0.5403092384725808,1.4030918969616293
1684108629076886500,12.240886474609376,2.4173107330650088,1.0598919152587651,1.9764312983766197
1684108629086904800,12.25090478515625,2.647927999421954,1.2646283059060572,2.251077676074207
1684108629096923000,12.2609228515625,1.9226748660087585,1.0859843878924846,2.1526789689034223
1684108629106940000,12.27093994140625,0.9001472704391926,0.672314154908061,1.683330103316903
1684108629116957700,12.280957763671875,0.21727489663772284,0.20577333247959612,0.791956141115725
1684108629126975700,12.290975830078125,-0.168730353699252,-0.211873987442255,0.007165361584722995
1684108629136993500,12.30099365234375,-0.35275428425073624,-0.6022609599947929,-0.2666390123307705
1684108629147010800,12.3110107421875,-0.4469464796423912,-0.8422720776408911,-0.5565840814471245
1684108629157028600,12.321028564453124,-0.5692658683657645,-0.9245295050889253,-0.9074307785108685
1684108629167047000,12.331046875,-0.686689228675887,-0.8474795831561088,-1.1885650569230317
1684108629177063700,12.341063720703126,-0.8593325180351734,-0.6479208874076604,-1.1337512244567274
1684108629187081700,12.351081787109376,-1.0437807384133337,-0.4323790251076221,-0.703291769234836
1684108629197099800,12.361099853515626,-1.108636364683509,-0.28563714278936386,-0.25508944431245323
1684108629207116800,12.37111669921875,-1.1512766520142554,-0.2324392210870981,-0.029021219561994074
1684108629217134600,12.381134521484375,-1.2374030298501253,-0.22887188399434089,0.10944733992964029
1684108629227153000,12.39115283203125,-1.304756318154931,-0.30645839702188965,0.2460895607769489
1684108629237169700,12.401169677734375,-1.3713748624444007,-0.35633272725939746,0.40572745728641746
1684108629247188000,12.41118798828125,-1.3856827892601489,-0.29927988369464875,0.5972171206086874
1684108629257205800,12.421205810546875,-1.3600152640402317,-0.14015081349015235,0.8040586668416857
1684108629267222500,12.431222412109374,-1.3230021689414977,0.031677579289674754,1.0443690596953035
1684108629277240800,12.44124072265625,-1.2618266924887895,0.1288163495272398,1.2591674101516603
1684108629287259000,12.4512587890625,-1.1225666903585194,0.15594517947137354,1.3764520195782184
1684108629297276000,12.46127587890625,-0.9259276814490556,0.11712474268972874,1.3635279483363032
1684108629307293700,12.471293701171875,-0.6039116498112678,0.11620295166969298,1.1515174750328063
1684108629317311700,12.481311767578125,-0.11974983049631117,0.22307751850187776,0.7665051812559366
1684108629327329800,12.491329833984375,0.7527852834612131,0.23423136520087717,0.19803017100691794
1684108629337346800,12.501346923828125,2.8063106351733205,0.10044365700185298,-0.6420253996282815
1684108629347364600,12.511364501953125,4.9011996784091,-0.03925122941434383,-1.2434823497638106
1684108629357382700,12.521382568359375,4.612303826084733,-0.09382979182004927,-1.2175848151803017
1684108629367399700,12.531399658203124,2.3901292961508034,0.07079612223505974,-0.7219555531725287
1684108629377417700,12.541417724609374,0.46851058813147245,0.29669512789845465,-0.06770078656822442
1684108629387435800,12.551435791015624,-0.4773971474856138,0.3175532070100307,0.22325345959067344
1684108629397452800,12.561452880859376,-0.7085814000755548,0.16930734986960888,0.011602467249333857
