time,seconds_elapsed,z,y,x
1684099777143550200,0.02155029296875,-4.131060524564981,1.425178787215799,-0.7626578581780195
1684099777153568300,0.031568359375,-3.2189784131169317,1.911800713033974,-0.29924802725166083
1684099777163587300,0.04158740234375,-2.04542621640861,2.4912954222083092,0.6066600717365741
1684099777173605000,0.051605224609375,0.1991033531963825,2.2745259178094566,1.1068046192117034
1684099777183624200,0.061624267578125,1.5085726713478564,1.0410727215636522,0.609080138490349
1684099777193642500,0.071642578125,2.072738001704216,1.4216327851720154,0.19276947399973868
1684099777203660300,0.081660400390625,3.403379871743917,2.223583519949019,-0.8548781689748167
1684099777213679400,0.091679443359375,4.487071180263161,2.426730157186836,-2.0104794061899183
1684099777223697200,0.101697265625,5.126885918104648,2.7391853104054924,-2.539794664700329
1684099777233716200,0.11171630859375,5.834691073110699,2.7570056292563674,-2.2217788086146113
1684099777243734300,0.121734375,6.841387404754758,2.1097000972680746,-1.3957172765403985
1684099777253753000,0.131753173828125,6.947150795474648,1.7811454576417802,-1.322298404586315
1684099777263771400,0.141771484375,7.027533661222457,1.578884517197311,-1.4641355637282132
1684099777273790500,0.15179052734375,6.981745723515749,1.0812367549739776,-1.8289090793356297
1684099777283808300,0.161808349609375,6.4417170555502175,0.4958253691017627,-2.3781410444542765
1684099777293826300,0.171826416015625,5.63267270925045,-0.05409706249907612,-2.896781471954286
1684099777303845000,0.18184521484375,5.125602308034897,-0.4557119699001312,-2.9372113897591827
1684099777313863200,0.19186328125,5.414274872997403,-0.06130246383324265,-2.541396546939015
1684099777323882200,0.20188232421875,5.649172593152523,1.0091903404168785,-1.7251953146219252
1684099777333900300,0.211900390625,4.4944934392184015,1.4137467080973087,-0.4180670066386461
1684099777343919400,0.22191943359375,2.919739445954561,1.52624627520442,0.530265983363986
1684099777353937200,0.231937255859375,2.338769695791602,1.8387601728729903,0.9750956169828772
1684099777363956200,0.241956298828125,2.8804841248869892,1.6788672786891459,0.28555823233425615
1684099777373974300,0.251974365234375,3.3257413362681865,1.6594244732029735,-0.9919807008102536
1684099777383992300,0.261992431640625,2.6456553783148524,2.0767693030469117,-1.6894424487173556
1684099777394011100,0.27201123046875,2.009343680158257,2.4041461310654877,-1.7797274075374006
1684099777404029400,0.282029541015625,1.168702418589592,1.9041008061811326,-0.6178758777558803
1684099777414048300,0.29204833984375,-0.09495558097958565,1.086023696989566,0.13024053711146116
1684099777424066300,0.30206640625,-1.5591794075131415,1.309912239613384,-0.29856793603301046
1684099777434085400,0.31208544921875,-3.0829952407002446,2.6011528042435645,-1.9765952567666767
1684099777444103200,0.322103271484375,-4.5038785226792095,3.8321559039235114,-4.561477309688925
1684099777454122200,0.332122314453125,-5.678119870695472,4.488258928743004,-6.649118281492591
1684099777464140300,0.342140380859375,-6.106260527580976,4.72628033387661,-7.640102080219983
1684099777474158300,0.352158447265625,-5.89037788901925,4.938281162568926,-7.407792622992396
1684099777484177400,0.362177490234375,-5.151235930985212,4.965014855715632,-5.951071719434857
1684099777494195200,0.3721953125,-3.8053240110993385,4.871108491528034,-4.008367626354098
1684099777504214300,0.38221435546875,-2.892152935370803,5.724689314168692,-1.8499936606794594
1684099777514232000,0.392232177734375,-2.999868044680357,6.347344242894649,0.07139759525954723
1684099777524251100,0.402251220703125,-3.7129479252189395,5.9102568939656015,2.4722692346990107
1684099777534269400,0.41226953125,-4.5654678406298155,5.322518380320072,5.667148394826055
1684099777544288300,0.422288330078125,-4.8401416908562185,4.217308775214851,9.40284065129459
1684099777554306300,0.432306396484375,-3.7497099681660533,3.287835968504846,12.240878550118207
1684099777564324400,0.442324462890625,-2.3637039383009073,3.1138918987452984,13.067515251731871
1684099777574343200,0.45234326171875,-1.7190829692214726,3.0167081203222272,11.533484314000606
1684099777584361200,0.462361328125,-1.6458546514034271,2.7437285067930817,8.521916479176282
1684099777594380300,0.47238037109375,-1.8676871382802724,2.528222592589259,5.856871925258636
1684099777604398300,0.4823984375,-2.2940385736614464,2.185927158510685,4.285780546155571
1684099777614417400,0.49241748046875,-2.2671681023925543,1.641124992533028,3.0299294209450482
1684099777624435200,0.502435302734375,-1.599341322031617,1.2288882994830608,1.8296084597766398
1684099777634454300,0.512454345703125,-0.8510182786762713,0.9855079976648091,0.769853907161951
1684099777644472300,0.522472412109375,-0.04032704195231199,0.7433753578200936,0.14425532619953155
1684099777654491100,0.5324912109375,2.4403613537847995,-0.7671320809826254,1.8125240539848804
1684099777664509200,0.54250927734375,7.610438763362168,-3.863041456052661,6.274259717461466
1684099777674527200,0.55252734375,12.186741301739215,-5.832924063438177,8.088105959960817
1684099777684546300,0.56254638671875,16.87065548905134,-5.943603283250331,5.06923510864675
1684099777694564600,0.572564697265625,16.12144689503312,-4.2301922221854324,1.2024217328399418
1684099777704583700,0.582583740234375,6.8940440591871734,-2.670162335322797,2.186563118326664
1684099777714601500,0.5926015625,-1.9544820630274713,-1.920504828493297,4.74679354507327
1684099777724620500,0.60262060546875,-6.111282155135274,-1.9772534284144638,5.7891515572071075
1684099777734638600,0.612638671875,-3.45078342795372,-2.3902955926284193,4.083178829449415
1684099777744657400,0.622657470703125,1.9340451319374143,-2.155508639371395,1.5387141271114348
1684099777754675700,0.63267578125,1.50435125426054,-2.3287872309595343,1.295543084129691
1684099777764693800,0.64269384765625,-5.25627626812756,-2.0228423364177344,3.7435131593525406
1684099777774712600,0.652712646484375,-0.07487433145940303,-2.841941043742001,0.4397989459753036
1684099777784730600,0.662730712890625,3.751500066453218,-2.4871748351469636,-1.4234236141115426
1684099777794749700,0.672749755859375,1.3761154811002314,-2.702091551285982,-2.341964107918739
1684099777804767500,0.682767578125,2.067578573114425,-2.4994243681281803,-7.123809677150845
1684099777814786600,0.69278662109375,1.0954735162496567,-0.6068956340581179,-11.105305663192272
1684099777824804600,0.7028046875,0.8154080361127853,-0.31738048079162834,-8.104287279433011
1684099777834823700,0.71282373046875,1.2621962564535438,-1.3516504635378717,-4.660155126062035
1684099777844841700,0.722841796875,0.5642658681213856,-2.034315332068503,-2.91235576544404
1684099777854859500,0.732859619140625,0.2873820867605507,-2.461087915471196,-1.8719132315427063
1684099777864878600,0.742878662109375,1.0731529633700847,-2.955286852414906,-1.114402673125267
1684099777874896600,0.752896728515625,2.7896377327919004,-3.6927336969688533,-1.0359528212666511
1684099777884915700,0.762915771484375,4.228084728512168,-4.372519210670888,-1.331621528726816
1684099777894933800,0.772933837890625,4.865039985269307,-4.856428224268555,-1.7195330510765312
1684099777904952600,0.78295263671875,4.609468018136918,-4.8061684018448,-1.9187153147280216
1684099777914970600,0.792970703125,4.148364418326318,-4.391886466702819,-1.5601064592301845
1684099777924989700,0.80298974609375,3.628152503725886,-3.9959108803629872,-1.0852648414462804
1684099777935007500,0.813007568359375,3.3809099735215304,-3.6134202140182254,-1.4224328495085239
1684099777945026600,0.823026611328125,2.665053906267881,-2.772044792956114,-2.256959427589178
1684099777955044900,0.833044921875,1.9320462132051586,-1.9989346604771911,-2.9562720640599727
1684099777965062700,0.843062744140625,-1.5843103416383266,-0.8966742605663836,-3.3982805027782916
1684099777975081700,0.853081787109375,-5.753406874608993,-0.16762480361014603,-4.304476478797197
1684099777985099500,0.863099609375,-5.946652733948826,0.5274919886060059,-7.482368263766169
1684099777995118600,0.87311865234375,0.003381459131836891,0.971949720172584,-9.628379591473937
1684099778005136600,0.88313671875,1.943711224296689,1.8875068142548201,-6.387271179613471
1684099778015155500,0.893155517578125,-4.727229012903571,1.656338489886373,-1.301240418988466
1684099778025173800,0.903173828125,-6.907111046031117,1.443301011622697,2.3805717787325382
1684099778035192800,0.91319287109375,-6.706453449130058,1.9065018759734929,2.3506787447720763
1684099778045210600,0.923210693359375,-4.638056106978655,2.5468621188685296,2.3319816430866718
1684099778055228700,0.933228759765625,-2.295180437172949,2.604440155351162,2.8740421091407535
1684099778065247500,0.94324755859375,0.20610767900049684,2.234830305628478,2.5809879680931567
1684099778075265500,0.953265625,3.64841787764132,2.607661747746169,2.128639337146282
1684099778085284600,0.96328466796875,4.429460702815652,3.4207486474350093,0.8121621860593556
1684099778095302700,0.973302734375,2.276408955077082,4.865770637631416,-0.5438379971206188
1684099778105321700,0.98332177734375,1.4241634726934134,7.7039996751129625,-1.6351730983912944
1684099778115339500,0.993339599609375,2.935851791843772,8.50416805651784,-2.563843941068649
1684099778125358600,1.003358642578125,4.815099604058266,6.9209156994998455,-1.4698860900789499
1684099778135376600,1.013376708984375,4.6078561990261075,4.9192327632278205,1.4885463668853043
1684099778145395500,1.0233955078125,3.2579350434988736,3.5558752030223606,3.944477045723796
1684099778155413500,1.03341357421875,0.9987200190026313,2.1758540927857157,3.7830291771829128
1684099778165431800,1.043431884765625,-0.9197902016073465,1.7403291708678006,2.42165489974916
1684099778175450600,1.05345068359375,-2.572542211309075,1.9244021281927823,2.3074679640769955
1684099778185468700,1.06346875,-4.310053402146697,1.77194245274961,4.071578992548584
1684099778195487700,1.07348779296875,-4.789193009385467,2.28646024736166,5.872383382645249
1684099778205505500,1.083505615234375,-5.256105587735772,2.7081986359894272,6.93069708880186
1684099778215524600,1.093524658203125,-5.559048085591197,2.3884797753781077,7.8559765354752535
1684099778225542700,1.103542724609375,-5.111520591190457,2.0873785214751956,9.198616301822662
1684099778235561700,1.113561767578125,-4.500168562245369,0.6611445261180401,11.1988361798048
1684099778245579800,1.123579833984375,-3.3263872329562902,-0.34943069278597827,12.385539534509181
1684099778255598600,1.1335986328125,-1.1170300990194082,-0.9056061934322118,11.677683526098727
1684099778265616600,1.14361669921875,1.8621623835094272,-1.2035901920974255,9.977716176235676
1684099778275634400,1.153634521484375,5.927876137286424,-0.9122183050483464,6.264409939098358
1684099778285653500,1.163653564453125,9.220475666931272,-1.9526824662595985,0.30824586496055123
1684099778295671800,1.173671875,7.108658285248279,-2.3968442836195227,-2.640906137961149
1684099778305690600,1.183690673828125,3.700854167321324,-1.1012725579172373,-4.207501374688745
1684099778315708700,1.193708740234375,0.9910341406751424,-1.845138037341833,-5.646154706636071
1684099778325727700,1.203727783203125,-1.225051497799158,-3.6679002844855186,-5.290268554100394
1684099778335745500,1.21374560546875,-2.767010890442133,-3.855157717065513,-4.854689271646738
1684099778345764600,1.2237646484375,-3.733005793863535,-4.603051721353829,-2.023604260700941
1684099778355782700,1.23378271484375,-3.005143939256668,-3.790671216368675,-0.69409928573668
1684099778365800700,1.24380078125,-2.2796739482223987,-0.6971838077485562,-0.09078034112155436
1684099778375819800,1.25381982421875,-2.663519536307454,0.9393409975126386,4.051904570263624
1684099778385837600,1.263837646484375,-3.3367297632724044,1.3217574295774102,2.6725825482070444
1684099778395856600,1.273856689453125,-3.275744840955734,1.2763289728328584,-2.835735467100143
1684099778405874700,1.283874755859375,-2.5368413678526878,2.448357028713822,-5.9809472177386285
1684099778415893500,1.2938935546875,-0.6042039107561111,4.712005140286684,-9.69760276530385
1684099778425911600,1.30391162109375,1.0600432333629577,3.986008202768862,-12.52927697431445
1684099778435930600,1.3139306640625,4.8197962374418974,0.4456915111452341,-11.369345891201496
1684099778445948700,1.32394873046875,7.107416760754585,-4.148128563743829,-7.591540001624822
1684099778455967700,1.3339677734375,6.860393133997917,-2.2654607139527796,-6.373541344946623
1684099778465985500,1.343985595703125,5.777057799309492,-1.3185416824012994,-3.0728228062540293
1684099778476003600,1.354003662109375,4.318783236569166,-1.084159802813828,-0.3167062347918749
1684099778486022700,1.364022705078125,2.667899943348765,-0.8200187447786331,-0.32938276101350783
1684099778496040700,1.374040771484375,1.7379104192882775,-0.5651815216615795,-0.2789765158563852
1684099778506059500,1.3840595703125,1.2299877851575611,-0.33852702145576474,-0.10584756187200546
1684099778516077600,1.39407763671875,0.2596510531395674,-0.3432531731948256,-0.45945174095034597
1684099778526096600,1.4040966796875,-1.9184639703154562,-0.7748945316776633,-1.2293991716146468
1684099778536114700,1.41411474609375,-3.357676105189323,-0.546903814432025,-2.37745335445106
1684099778546133500,1.424133544921875,-1.8093641286492346,1.2396014166772364,-3.7302275613218545
1684099778556151600,1.434151611328125,0.6325830330222845,2.6843957355976102,-5.163990783140063
1684099778566169900,1.444169921875,1.438059457707405,2.0698615694850684,-5.198114586538076
1684099778576188700,1.454188720703125,1.1001414349954575,1.6428738820269704,-4.440565449675917
1684099778586206700,1.464206787109375,-0.5469253686767072,-1.9071295063525437,-1.574946885487437
1684099778596225800,1.474225830078125,-3.2096260628819464,-4.752447040790319,2.193819373065233
1684099778606243600,1.48424365234375,-6.580517038953304,-4.924682845327258,6.17024112458229
1684099778616262700,1.4942626953125,-8.204912722742558,-4.087774925068021,8.13151956975162
1684099778626280400,1.504280517578125,-7.620314845210314,-1.307283206284046,7.136487372416258
1684099778636299500,1.514299560546875,-3.5735119819998737,1.4249527233749628,5.092905322569608
1684099778646317800,1.52431787109375,1.6312883659124373,2.4927473745822906,2.0662141528934237
1684099778656335600,1.534335693359375,6.0730187677145,2.4776538503468033,-1.5747966633617878
1684099778666354700,1.544354736328125,5.061732770192623,1.185095919507742,-4.331038907030225
1684099778676372500,1.55437255859375,3.7994577494144437,0.5659925457835198,-5.829051605919003
1684099778686391600,1.5643916015625,5.23363598177433,1.1088444544762373,-9.758854814124106
1684099778696409000,1.5744091796875,6.231924550557136,2.028225490760803,-12.575538374751806
1684099778706428000,1.584427978515625,6.10938538160324,2.9822406180530785,-10.398090290772915
1684099778716446000,1.594446044921875,4.872537355287373,3.2148791611045597,-8.120777226462959
1684099778726465000,1.604465087890625,2.821895157796144,3.7534132065981622,-5.457263535374403
1684099778736482800,1.61448291015625,0.8247498649537562,3.8215579375416038,-4.0834611535221335
1684099778746502000,1.624501953125,-0.1368026721060276,3.9686306592494245,-3.2406109837323425
1684099778756519700,1.634519775390625,-0.03960486515760422,4.522499051997065,-1.9712901360958814
1684099778766538000,1.6445380859375,0.4317205611988902,4.622599594649672,0.236378314101696
1684099778776557000,1.65455712890625,1.2161314015015958,3.996207817482948,3.03241626932472
1684099778786574800,1.664574951171875,1.3938430071011185,2.923414335075021,6.143381174707413
1684099778796594000,1.674593994140625,0.9705258248493075,1.2708417735934256,8.665503112334012
1684099778806611700,1.68461181640625,0.6179346222057939,-0.21936638902425765,9.488408226203918
1684099778816630800,1.694630859375,0.33770635272264476,-0.3029015813231468,8.10354259854555
1684099778826648800,1.70464892578125,-0.006282733531296253,0.1530447818547487,5.374385930201411
1684099778836668000,1.71466796875,-0.9938415262460708,1.2022691726267336,3.0568668199703097
1684099778846686000,1.72468603515625,-0.8793024161353706,0.9329653250008821,1.7007655145034193
1684099778856705000,1.734705078125,-1.1534089878678322,1.4018985955238341,2.312920676524937
1684099778866722800,1.744722900390625,-2.0549986391350625,1.5962217287063598,2.1036776221081612
1684099778876740900,1.754740966796875,-2.7235695158615707,1.476858851701021,1.3126295357480644
1684099778886760000,1.764760009765625,-3.548583584709465,1.1675526640325784,0.8985248568691313
1684099778896778000,1.774778076171875,-4.195651362419128,0.9347206442356109,0.018340981724113223
1684099778906797000,1.784797119140625,-4.236446314144135,0.3193137869417667,-0.9091985188357532
1684099778916814800,1.79481494140625,-2.9653099415183064,-1.0162339753180742,-1.8575668724127112
1684099778926834000,1.804833984375,-1.2144856801211834,-1.9036533546745775,-3.2568525089591738
1684099778936852000,1.81485205078125,-0.06945069897547364,-1.7275719806253909,-4.415926682981849
1684099778946870800,1.824870849609375,0.5211947881579398,-0.40599312248528,-5.017851542890072
1684099778956888800,1.834888916015625,0.08053571822196244,1.504896028661728,-4.93128034389615
1684099778966907000,1.844906982421875,-0.6867397167541086,2.1554554478794334,-3.6320381129875776
1684099778976926000,1.854926025390625,-1.387562611657381,1.6161849048048258,-1.3585824547581373
1684099778986944000,1.864944091796875,-1.28924617594257,1.3339222068846226,0.7882300332646817
1684099778996962800,1.874962890625,-1.0950761874951422,1.5350795700013637,2.2715201601222157
1684099779006980900,1.88498095703125,-1.2335482541181146,2.1578420507550238,2.4795488703131676
1684099779017000000,1.895,-0.34501061132140454,2.2401433173447844,2.2546749699138102
1684099779027017700,1.905017822265625,0.8504127139985561,1.5365946507394312,1.654423303914815
1684099779037036800,1.915036865234375,1.461426304769516,1.4955711509555578,0.915969766536355
1684099779047054800,1.925054931640625,2.0872037494301794,2.4202228211194274,0.30095366212576624
1684099779057074000,1.935073974609375,2.602043615603447,2.2811077804177997,0.16278642366826535
1684099779067092000,1.945092041015625,2.6184464688718316,1.1644734027177095,0.7269853640332817
1684099779077109800,1.95510986328125,1.9857330874681471,-0.3466290793687105,0.6327271176680922
1684099779087128800,1.96512890625,0.721471861308813,-0.5125806890696287,0.12228534032329916
1684099779097147000,1.97514697265625,-0.8280009757041931,-0.23418577249348163,-0.0039158582694828505
1684099779107165700,1.985165771484375,-1.3097510577023028,1.2813427093416452,0.8694203429378569
1684099779117184000,1.99518408203125,-1.1995616672337055,2.2744991759330033,2.959471736884117
1684099779127203000,2.005203125,0.3220943575710058,1.7614339182168244,4.9431794560045
1684099779137220900,2.015220947265625,2.2648849598914382,1.6859464232951402,4.414108235383034
1684099779147240000,2.025239990234375,3.007642770335078,2.6766262706398964,2.8809672322288153
1684099779157257700,2.0352578125,1.7921990588366985,3.2134283777743575,2.866563736084103
1684099779167276800,2.04527685546875,1.4321861817598343,4.098508500528335,3.5423581343233583
1684099779177294800,2.055294921875,2.187474387952685,4.611722226804495,4.8345112837538124
1684099779187313000,2.06531298828125,3.3175364025026557,4.41120549967885,6.310953663608432
1684099779197332000,2.07533203125,3.959989672154188,3.86237159396708,6.877983735746144
1684099779207349800,2.085349853515625,4.005874055972695,2.8749598085075614,5.713194691208004
1684099779217368800,2.095368896484375,3.4436464156806466,1.2940934698432682,4.201165741926431
1684099779227387000,2.105386962890625,2.3709517174720762,0.5667857419878244,4.033498852740228
1684099779237405700,2.11540576171875,2.71072961577177,0.9961913042426108,3.3700498490720987
1684099779247424000,2.125424072265625,3.0774083804786203,1.4139824165493249,1.7045120075553655
1684099779257443000,2.135443115234375,3.116085024875402,2.1204379105120896,-1.0513267698787152
1684099779267460900,2.1454609375,1.657676168230921,2.975518031799793,-3.591065174347162
1684099779277480000,2.15547998046875,-0.11648228006772696,4.445969939067959,-4.1518230343475935
1684099779287498000,2.165498046875,-0.5238309088151901,5.5483010661274195,-1.9686185787990689
1684099779297515800,2.175515869140625,-0.4453296920955181,5.104594006797671,-2.209686804282665
1684099779307534800,2.185534912109375,-1.4312977084875107,3.0089012459635733,-3.7839337248072025
1684099779317553000,2.195552978515625,-2.163271090066433,1.9560130719870328,-3.890135506944358
1684099779327572000,2.205572021484375,-2.03229727024436,1.4223440021812914,-1.680797369968891
1684099779337590000,2.215590087890625,-2.355801933004707,-0.1920411597251892,1.3231212652765214
1684099779347608800,2.22560888671875,-3.201316499698162,-1.1479501379400492,2.778898019851744
1684099779357627000,2.235626953125,-3.6034476860582827,-1.9411089328438043,2.3366737464256584
1684099779367646000,2.24564599609375,-4.266661419665813,-1.7333114010602235,1.9274717448964713
1684099779377663700,2.255663818359375,-8.842621428215503,1.543378611791134,1.9104042902395129
1684099779387682000,2.26568212890625,-9.376187037646769,4.56797719310224,-0.30121903506368397
1684099779397700900,2.275700927734375,-8.615295020097493,3.3165146582394835,-2.0003987416803835
1684099779407719000,2.285718994140625,-6.220086813247203,0.39724633692801,-4.253825318968296
1684099779417738000,2.295738037109375,-2.231164476597309,-3.645603404742479,-5.324124061951041
1684099779427755800,2.305755859375,1.1911095537740737,-6.3013932235807175,-6.229381880337
1684099779437774800,2.31577490234375,2.2810440675318238,-6.472078291544318,-6.491577357262373
1684099779447793000,2.32579296875,3.4345915870875117,-6.204402921903133,-6.582181172773241
1684099779457811700,2.335811767578125,11.370132657665014,-6.60049833523035,-6.749355602267384
1684099779467830000,2.345830078125,16.491833866608143,-5.708425577110051,-5.049150351995229
1684099779477848800,2.355848876953125,7.29519500233829,-5.668392257407307,-3.434083637565374
1684099779487867000,2.365866943359375,3.5810499762892722,-6.136296769404411,-3.024340807157755
1684099779497885000,2.375885009765625,2.0822037491858003,-6.104836632257699,-2.6328184008345006
1684099779507903700,2.38590380859375,1.5070681120038032,-5.421878918260336,-2.381553483246267
1684099779517922000,2.395922119140625,1.3578852662742138,-4.242489685961604,-2.091960588568449
1684099779527940900,2.40594091796875,1.3349568106293677,-2.4677082103937864,-1.8137796070039272
1684099779537959000,2.415958984375,1.1210720678865909,-0.509400305467844,-1.56734137891978
1684099779547978000,2.42597802734375,0.8426338966906071,1.3076783430814742,-1.2487512300774455
1684099779557995800,2.435995849609375,0.7885773123323917,2.608962601211667,-0.9761500944718718
1684099779568014800,2.446014892578125,0.5617150876600295,3.193908853790164,-0.5273810755774379
1684099779578033000,2.456032958984375,0.19853855892047284,5.970339314484596,1.525020825062692
1684099779588051700,2.4660517578125,-1.4440344404637813,5.471074618583917,1.452110487152636
1684099779598070000,2.476070068359375,-2.597529937571287,5.386556260466575,1.2869701938346028
1684099779608087800,2.486087890625,-3.167007402861118,5.047428350508213,0.9512737196296452
1684099779618107000,2.49610693359375,-3.8168718255519867,2.9277614243686196,-0.29446576141119
1684099779628125000,2.506125,-3.7457799352407455,2.403292144584656,-0.4656964805588126
1684099779638143700,2.516143798828125,-3.605867606681585,2.5777520549118518,0.008445756784081458
1684099779648161800,2.526161865234375,-3.346967664170265,2.533426590973139,0.5277420178443193
1684099779658180900,2.536180908203125,-2.6153637004256245,2.113376301562786,0.4959694537475705
1684099779668199000,2.546198974609375,-2.2687691078484056,1.9832628979623317,0.37600247336924075
1684099779678218000,2.556218017578125,-2.099482216244936,1.860714376658201,0.5179235114023089
1684099779688236000,2.566236083984375,-0.6720522891014814,1.2305284679055213,0.8812363068073987
1684099779698257000,2.5762568359375,3.167150610724091,0.1356301211953163,2.396312368699908
1684099779708275200,2.586275146484375,4.855624506670236,-0.6362474007487297,3.5221003591924904
1684099779718293000,2.59629296875,3.987741017910838,-0.8131704863190651,3.4683097322940823
1684099779728312000,2.60631201171875,2.7790485342383384,-0.6768798553884029,3.066929072040319
1684099779738330000,2.616330078125,1.7730325860738754,-0.34027474190592766,2.7805256210535765
1684099779748349000,2.626348876953125,0.7256301500320435,0.09947802684009074,2.4813649798244235
1684099779758367000,2.636366943359375,-0.29052137116696686,0.25881226422786713,2.069692934919894
1684099779768386000,2.646385986328125,-1.042079779714346,0.01690612661540508,1.569035031095147
1684099779778404000,2.656404052734375,-1.366720899158716,-0.17254501661658286,0.9791235573247075
1684099779788423200,2.666423095703125,-1.3500246159017084,-0.3114490449160337,0.19891016871184108
1684099779798441000,2.67644091796875,-1.1604583218574522,-0.22766017011702058,-0.5023302209511399
1684099779808459000,2.686458984375,-0.9361211586832999,-0.13390227448940276,-0.969010451850295
1684099779818478000,2.69647802734375,-0.6740998692810535,-0.13276654845774172,-1.3269342476934194
1684099779828496000,2.706495849609375,-0.25141225363705305,0.1560737742871046,-1.6983283504843711
1684099779838515000,2.716514892578125,0.5566390630373731,0.19786884296536444,-1.7034566532835362
1684099779848533000,2.726532958984375,1.6852444125056265,0.4121107285827398,-1.3150681610718369
1684099779858552000,2.736552001953125,1.8329202146731316,0.42022915310859676,-0.7964516989693046
1684099779868570000,2.746570068359375,1.4328408462762832,0.2227881801664829,-0.20704554437249897
1684099779878589000,2.7565888671875,0.8225017207007854,-0.5235246924102306,0.10793985797613859
1684099779888607000,2.76660693359375,0.4828362697996199,-1.0643109007447957,0.31405630480498076
1684099779898626000,2.7766259765625,0.32364509414434434,-1.1729437094211577,0.7078989707693457
1684099779908643800,2.786643798828125,0.29354455491304393,-1.0334656806260347,1.1402370793446899
1684099779918662100,2.796662109375,0.4805377105336636,-0.6990928562402725,1.544409708404541
1684099779928681000,2.806680908203125,0.9892577055871487,-0.29776889460980893,1.7863406881973147
1684099779938699000,2.816698974609375,1.8220773336194453,-0.07618950571119786,1.8107511990934608
1684099779948718000,2.826718017578125,2.640507494032383,0.04387947373688221,1.6578683298021555
1684099779958736000,2.83673583984375,2.986687368328869,0.030222119784355163,1.179679739677906
1684099779968755000,2.8467548828125,2.613776138973236,-0.11190262412726878,0.6684063338145614
1684099779978773000,2.85677294921875,1.9058523260235785,-0.169389182934165,0.45853345706164833
1684099779988792000,2.8667919921875,1.4269314761020242,-0.018973580539226532,0.7338713241547346
1684099779998810000,2.87681005859375,1.4007564397513865,0.19304419928789138,1.4565981539607047
1684099780008829200,2.8868291015625,2.0147906935177744,0.2576332835763693,2.427129531767964
1684099780018847000,2.896846923828125,3.246199597519636,0.2768202146053314,3.4023449757382274
1684099780028865000,2.906864990234375,4.504502207535505,0.36087270877659317,4.150131427998841
1684099780038883800,2.9168837890625,4.443747294582426,0.42949733219146724,4.611980293218791
1684099780048902100,2.926902099609375,2.994212503136694,0.6807002904593944,4.715104275345802
1684099780058921200,2.936921142578125,0.5762739935621619,1.2780015822201967,3.840513690163195
1684099780068939000,2.94693896484375,-1.749312395529449,1.7620470816791056,2.052666396795213
1684099780078958000,2.9569580078125,-3.5525253080725667,1.874470514810085,0.5657277573674917
1684099780088976000,2.966975830078125,-3.434423829305172,1.2596055093079805,-1.6264730745851992
1684099780098995000,2.976994873046875,-2.520558049310744,0.1538993528574705,-4.277004534503817
1684099780109013000,2.987012939453125,-2.1671812492474913,-1.3276982178032397,-5.855930260494351
1684099780119031000,2.997031005859375,-2.782111428940296,-2.9084441449582576,-6.712005822560191
1684099780129050000,3.007050048828125,-3.824223941880464,-4.141004995474219,-7.277952191114426
1684099780139068200,3.017068115234375,-3.938358562843501,-4.657055406481027,-7.549780588781833
1684099780149087000,3.0270869140625,-3.586590951542556,-4.515029446768761,-7.52638042397201
1684099780159105000,3.03710498046875,-3.802126676362753,-4.051366810125113,-7.185469137728214
1684099780169124000,3.0471240234375,-3.819131002655625,-3.4726866322040557,-6.494591736647486
1684099780179142000,3.057141845703125,-2.962069644422829,-2.439692660742998,-5.618109346368908
1684099780189161000,3.067160888671875,-1.3413649241060017,-0.8445096274346112,-4.656667283946275
1684099780199179000,3.077178955078125,0.5873673422455787,0.7453039877951144,-3.5894998247265812
1684099780209198000,3.087197998046875,1.8336106811553239,1.8540671937286852,-2.593361711975932
1684099780219216100,3.097216064453125,2.002098531335592,2.276160387143493,-1.6573276470541953
1684099780229234000,3.10723388671875,1.9199483636543153,2.0008073224812746,-0.32866672169864175
1684099780239253000,3.1172529296875,1.7926804126128553,1.258483811801672,1.2897434579402207
1684099780249271000,3.12727099609375,1.71183314422369,0.3514829491406679,2.69970845554173
1684099780259289900,3.137289794921875,1.8293971551135182,-0.750847593396902,3.4888492469757795
1684099780269308200,3.14730810546875,1.6278110451906918,-1.7893115207016468,3.52879664196074
1684099780279327000,3.157326904296875,1.280656480643153,-2.480499302905798,3.452569142326712
1684099780289345000,3.167344970703125,1.245721360862255,-2.6756092025518416,3.354441361051798
1684099780299364000,3.177364013671875,1.5336182652771473,-1.9035469716906546,3.209906048867106
1684099780309382000,3.1873818359375,1.965667620038986,-0.45290334222018713,3.273450592538714
1684099780319401000,3.19740087890625,2.594165429574251,0.918093919083476,3.575193651476502
1684099780329419000,3.2074189453125,2.6521751354724166,1.9256646954745054,3.4063504119873045
1684099780339437000,3.21743701171875,1.4622206700176,2.516373749363422,2.404050269475579
1684099780349456100,3.2274560546875,-0.3549935876101255,2.6565204712003467,0.8580418937027454
1684099780359474000,3.237473876953125,-1.9648761774003505,2.1763252174288032,-0.9316717780590057
1684099780369493000,3.247492919921875,-1.9155039514660834,1.2433090390235184,-2.768697820615768
1684099780379511000,3.257510986328125,-0.25610943500995637,0.13550970968604087,-4.548588602021336
1684099780389529900,3.26752978515625,0.8260469190269708,-0.8081102803200483,-6.000277356630563
1684099780399548200,3.277548095703125,0.49667467940747734,-1.700868682616949,-6.749575967019796
1684099780409567200,3.287567138671875,0.04551847311556339,-2.4934371104121205,-6.127571026635169
1684099780419585000,3.2975849609375,1.0267910251677035,-2.6447587217360735,-3.7293355809181925
1684099780429603000,3.30760302734375,3.8127275653541086,-1.7321645691126584,-0.8716548239916563
1684099780439622000,3.317621826171875,5.055016613680124,-0.03515782262086868,1.3079337791472672
1684099780449640000,3.327639892578125,1.8593074324697254,1.6323299839198588,2.6163585566818712
1684099780459659000,3.337658935546875,-1.7893582824528216,2.572539288699627,2.548319624200463
1684099780469677000,3.347677001953125,-2.141595849353075,2.4240613763689995,1.879172408890724
1684099780479696100,3.357696044921875,-0.2998439473181963,1.6596411846935748,1.7656582579135893
1684099780489714000,3.3677138671875,0.7352455351173878,0.9343547335326671,1.5281126535981893
1684099780499733000,3.37773291015625,0.7045581359088421,0.2749941682219505,0.7786258271604776
1684099780509751000,3.3877509765625,-0.08977905512452125,0.016217559829354286,0.4016927949428558
1684099780519769900,3.397769775390625,-0.46300797212719913,0.19373627320528028,0.34638416469693184
1684099780529788000,3.407787841796875,0.025981413474678992,0.8704647374242543,0.9743979901075362
1684099780539807000,3.417806884765625,1.7444956428974865,1.4498843355357647,1.8972651149421929
1684099780549825000,3.427824951171875,0.46097675856053827,1.9092028054952621,2.289777993607521
1684099780559843000,3.437843017578125,-0.15373627125024794,2.018167622604966,1.654751074564457
1684099780569862100,3.447862060546875,0.028503625428676602,2.1016706661999223,0.7985375653326511
1684099780579880000,3.4578798828125,-1.63523739579916,2.2331910139888524,0.42238662340343
1684099780589899000,3.46789892578125,-0.9786796129494905,1.479087633666396,0.8777478801697493
1684099780599917000,3.4779169921875,0.35264731674492356,0.34706337913274765,2.4492864185184238
1684099780609936000,3.487935791015625,0.1331681149959564,-0.5930015487402677,3.0009347971290348
1684099780619954200,3.4979541015625,0.4609709133416414,-1.3695856409400702,2.0505711780816314
1684099780629973000,3.507972900390625,-0.33144086258709426,-1.538967225089669,1.0934522395551205
1684099780639991000,3.517990966796875,-0.48990474688112734,-1.4865227521032094,0.29325813918709753
1684099780650010000,3.528010009765625,0.07001695455610751,-1.53385558116436,-0.2118874314457178
1684099780660028000,3.53802783203125,0.15622867258787154,-1.3483493761658667,-0.555963903722167
1684099780670046200,3.548046142578125,0.15166297210752963,-0.8830945018947124,-0.6356435896366834
1684099780680065000,3.55806494140625,-0.006003624328970909,-0.1630669941753149,-0.49605976237952704
1684099780690083000,3.5680830078125,-0.09344459189474583,0.7173094809323549,0.09031973787248133
1684099780700100600,3.5781005859375,-0.1736070928901434,1.2275345467865466,0.5991232464909553
1684099780710118700,3.58811865234375,-0.297371419724822,1.437809282338619,1.2570821283102034
1684099780720137700,3.5981376953125,-0.49503626455068583,1.459048469722271,1.7472399731695651
1684099780730155800,3.60815576171875,-0.4773620761722326,1.2063684246391058,1.564633581265807
1684099780740174800,3.6181748046875,0.1412508836865425,0.8891437189310789,1.896377226191759
1684099780750192600,3.628192626953125,0.259209739112854,0.7826268794953822,2.0317595101058483
1684099780760210700,3.638210693359375,-0.020800211444497108,0.8370406067281961,1.6816677230626345
1684099780770229800,3.648229736328125,-0.008892916029691696,0.8798129960060119,1.6966130709990859
1684099780780247800,3.658247802734375,-0.21203005478680131,0.8831289886862039,1.6952815301343798
1684099780790267000,3.668266845703125,0.0900298150151968,0.8254764256626367,1.725725475975871
1684099780800285000,3.678284912109375,0.19138591068685054,0.6631500207215547,1.746417843131721
1684099780810303700,3.6883037109375,-0.47562312355041503,0.4335170892268419,1.313689566195011
1684099780820321800,3.69832177734375,-0.9690601362109184,0.05754150386452674,0.7971887810721993
1684099780830340900,3.7083408203125,-0.8310171086549758,-0.3201473151564598,0.2758122066065669
1684099780840358700,3.718358642578125,-0.8220937974870205,-0.5727811830103398,-0.16222557491511105
1684099780850377700,3.728377685546875,-1.4697212549060583,-0.7462514977782965,-0.7917685095891356
1684099780860395800,3.738395751953125,-1.5632418346464634,-0.7927870389819145,-1.0807912031635643
1684099780870413800,3.748413818359375,-1.5023317311316728,-0.6360241133868694,-0.5873673422455787
1684099780880433000,3.758432861328125,-1.1445996584683655,-0.2847498385608196,0.24616993253678082
1684099780890450700,3.76845068359375,-0.8292378240227699,0.1216051029741764,0.9460171142756938
1684099780900469800,3.7784697265625,-1.3698539364874363,0.2769686831653118,1.4949597410589455
1684099780910487600,3.788487548828125,-1.1505039140760898,0.19251169984638689,1.4512605923250317
1684099780920506600,3.798506591796875,-0.5793529626160859,-0.31233927175402637,0.8489847270220517
1684099780930525000,3.80852490234375,-0.17579963449835775,-1.027166872742772,0.3807499601572752
1684099780940543700,3.818543701171875,-0.5662894829034805,-1.5424761099934576,0.08934387857764958
1684099780950561800,3.828561767578125,-0.7109668339073657,-1.6968705528914927,-0.06343582260012626
1684099780960580900,3.838580810546875,-0.3081815675526857,-1.4049082987338304,0.4599117596775293
1684099780970598700,3.8485986328125,0.45774435251057144,-0.7160235327750444,1.3017153430238366
1684099780980616700,3.85861669921875,1.1200456474483012,-0.03668517831861973,2.094800780430436
1684099780990635800,3.8686357421875,0.5681710588663816,0.3894049757778644,2.291359417580068
1684099781000653800,3.87865380859375,0.14088088133037088,0.4416629862815141,1.8772727127492426
1684099781010673000,3.8886728515625,0.6335720440596342,0.17485095547139642,1.7825158692121505
1684099781020690700,3.898690673828125,-0.26844927662312984,-0.23039923969209192,1.4364879706069826
1684099781030709800,3.908709716796875,-0.6722019267052411,-0.5997264730811118,0.8616179986238479
1684099781040727800,3.918727783203125,-0.5231441686600447,-0.560973256316781,0.2659606746777892
1684099781050746600,3.92874658203125,-0.513712323448062,-0.11215806019306182,-0.1826467239141464
1684099781060764700,3.9387646484375,-0.6770254013389349,0.5648503900110722,-0.5212935723572969
1684099781070783700,3.94878369140625,-0.7800684271842241,1.2537450928419829,-0.6995163423493505
1684099781080801800,3.9588017578125,-0.513913398978114,1.451979846510291,-1.1797267936900258
1684099781090819800,3.96881982421875,-1.39912737724483,1.1970254267543554,-1.4756985757499932
1684099781100838700,3.978838623046875,-2.1058272013574837,0.5976835690766572,-1.610947296412289
1684099781110856700,3.988856689453125,-1.9671528901606796,0.14875205309689044,-1.965583741147816
1684099781120875800,3.998875732421875,-1.006163247680664,0.009957330390810966,-2.3253993420869112
1684099781130893800,4.008893798828125,-0.6965005016595125,0.06531915212869643,-2.4100571086749434
1684099781140913000,4.018912841796875,-0.15641162793934343,0.5317682046204805,-1.9793156216412782
1684099781150930700,4.0289306640625,1.1509335376650094,0.962309492906928,-2.18408942168951
1684099781160949800,4.03894970703125,1.4200596906363963,1.5602642801403999,-1.4310869883462787
1684099781170967800,4.0489677734375,2.577786541703343,1.5741186179697513,-0.8454141750589013
1684099781180986600,4.058986572265625,2.8274323336571454,1.7475579530775547,0.8424860126525163
1684099781191004700,4.069004638671875,2.7981793511658903,1.724304503262043,2.2774612406089902
1684099781201023000,4.07902294921875,1.8629536800175903,1.4913976646631955,1.8885376186072824
1684099781211041800,4.089041748046875,1.805243833848834,1.349512574726343,1.6508888461783526
1684099781221059800,4.099059814453125,2.162023135831952,1.3099153083533048,1.8821654532268641
1684099781231079000,4.109078857421875,2.0578145733386277,1.1624176392316818,1.0047720855832099
1684099781241096700,4.1190966796875,2.1991455365240573,1.285880352771282,0.37887013776004314
1684099781251115800,4.12911572265625,2.243923420405388,1.5436609358638524,-0.4436933230653405
1684099781261133600,4.139133544921875,1.1014531751811503,2.0573469558268784,-0.02099018105864525
1684099781271152600,4.149152587890625,0.948801192036271,1.9478285964876412,0.660795858810842
1684099781281171000,4.1591708984375,-0.29818565871715547,2.437669045960903,2.116511676979065
1684099781291189800,4.169189697265625,-1.540095936858654,2.451229953801632,1.7567242792211473
1684099781301207800,4.179207763671875,-2.5583301460832355,1.5185247410416602,0.08110255832448601
1684099781311225600,4.1892255859375,-3.8969302816510196,-0.3209481101453304,-1.8458378561742603
1684099781321244700,4.19924462890625,-5.903467672216892,-2.8931992295533417,-2.2469464214883743
1684099781331262700,4.2092626953125,-8.153568319952488,-5.359279546484351,-1.3100548629544675
1684099781341281500,4.219281494140625,-10.266971509522199,-7.216618309229612,-0.7391714763894677
1684099781351299800,4.2292998046875,-11.649878988850116,-8.145110288208723,-0.2572236798621714
1684099781361319000,4.23931884765625,-11.890894899624586,-8.089206614679098,0.5905512329787016
1684099781371336700,4.249336669921875,-11.509238346016406,-7.031574461045861,1.041449372856319
1684099781381355800,4.259355712890625,-11.218296082556247,-5.685235840180516,0.7020888231858611
1684099781391373800,4.269373779296875,-11.144643986368179,-4.6585997133135795,0.048649903009086844
1684099781401392600,4.279392578125,-11.09609359821081,-3.841000304636359,-0.6677947777874768
1684099781411410700,4.28941064453125,-11.11343753172159,-3.0844764191687104,-1.1726112625963985
1684099781421428700,4.2994287109375,-10.98662083157897,-2.4452999792307613,-1.4270011803373694
1684099781431447800,4.30944775390625,-10.488562588858604,-1.9019617483258247,-1.6503522550836205
1684099781441467000,4.319466796875,-9.592092472562193,-1.368780169776082,-1.837613925447315
1684099781451484700,4.329484619140625,-8.399016075694561,-0.807497116857767,-2.101807152061164
1684099781461503700,4.339503662109375,-7.12596364031434,-0.23223288486003874,-2.4750971516013145
1684099781471521800,4.349521728515625,-6.046620590132474,0.4417641085684299,-2.875197708916664
1684099781481539800,4.359539794921875,-5.210451505541801,1.1113900473058222,-3.2405437637150287
1684099781491559000,4.369558837890625,-4.7556899682343,1.8158102360486983,-3.50160468365252
1684099781501576700,4.37957666015625,-4.341616999667883,2.624041512399912,-3.7687306027173992
1684099781511595800,4.389595703125,-3.894844707548618,3.4728871232122183,-3.6837975263193248
1684099781521613800,4.39961376953125,-3.5404736357510087,4.456445155853033,-3.284448956415057
1684099781531632600,4.409632568359375,-3.0921541141897437,5.504774643611908,-2.639929401883483
1684099781541650700,4.419650634765625,-2.6684327350512147,6.872392783871293,-1.7868613510705529
1684099781551669800,4.429669677734375,-2.16396608659327,8.8034245593369,-0.76247022665143
1684099781561687800,4.439687744140625,-1.4890566544950008,10.80948147290945,0.20468049574159083
1684099781571707000,4.449706787109375,-0.46545858014971014,12.84006258688569,0.8824594188615679
1684099781581724700,4.459724609375,1.4465402858048677,14.73867502478361,1.2640594199769197
1684099781591743700,4.46974365234375,3.9726597686350344,15.886365050482748,1.604744350118935
1684099781601761800,4.47976171875,4.206308657772839,15.531324116599558,1.7825439262628555
1684099781611779600,4.489779541015625,2.6718048418328166,14.137087434005737,1.4800617393955589
1684099781621798700,4.499798583984375,1.8479723839849234,12.264240721005201,1.3665654163360594
1684099781631817000,4.50981689453125,1.5457102696090936,10.37435636396408,1.516689196177572
1684099781641835800,4.519835693359375,1.7823726613491773,8.702716113919019,1.4296920268565416
1684099781651853800,4.529853759765625,2.415222236353159,7.265181556868553,1.0360299781560898
1684099781661873000,4.539872802734375,3.021484833204746,6.111292676529288,0.8567850255094468
1684099781671890700,4.549890625,3.7388773162454365,5.021320095783472,0.8588428348220885
1684099781681909800,4.55990966796875,4.349588709199428,4.160770603173971,0.9341777695305645
1684099781691927600,4.569927490234375,5.0122477315336464,3.547659163340926,0.7399350081078708
1684099781701946600,4.579946533203125,5.605172707906365,2.9918361293941733,0.6339429231986403
1684099781711964700,4.589964599609375,5.873877420595288,2.5890818426996467,0.7105567918017506
1684099781721982500,4.599982421875,5.920214224356412,2.4031039285361766,0.7621005165562034
1684099781732001500,4.61000146484375,5.924125260320306,2.207372682121396,0.7200383213743567
1684099781742019300,4.620019287109375,5.900107255873084,1.8221528830736875,0.5452224372163414
1684099781752038400,4.630038330078125,5.272310872605443,1.4474866267442703,0.48606443806588645
1684099781762056700,4.640056640625,4.187434153693914,1.369600838509202,0.35600656404495234
1684099781772075500,4.650075439453125,3.0033541332304474,1.364704883161187,0.04970043497532606
1684099781782093600,4.660093505859375,2.0630390299886465,1.407178581753373,0.28277970753163095
1684099781792112600,4.670112548828125,1.8577479280680418,1.5371101990461349,1.3694316194221376
1684099781802130400,4.68013037109375,1.5799176596373319,1.4428759180784225,2.978466944733262
1684099781812149500,4.6901494140625,0.7759025396764277,0.9151970285981893,4.007632005555927
1684099781822167300,4.700167236328125,-0.23296119913458824,0.4208201047390699,4.103801346239448
1684099781832185600,4.710185546875,-1.0709940317705273,0.09923252764642237,3.860798645561933
1684099781842204700,4.72020458984375,-1.7050474296063183,0.03209960409402847,3.3713276139229533
1684099781852222500,4.730222412109375,-2.2498712228938937,0.030520810469985008,3.1050121344581245
1684099781862241500,4.740241455078125,-2.72405642259568,-0.030209844824671744,3.0906808267667887
1684099781872259600,4.750259521484375,-3.143495009848475,-0.23762159216105935,3.002637801654637
1684099781882278400,4.7602783203125,-3.3774645092427726,-0.4386632199436426,2.7966782989531755
1684099781892296400,4.77029638671875,-3.559248478847742,-0.6377589743554591,2.4990274777650834
1684099781902315500,4.7803154296875,-3.6931484152495857,-0.7867576956897974,2.1297633727401495
1684099781912333600,4.79033349609375,-3.6511829584404825,-0.8223240991115569,1.9069746080517769
1684099781922352600,4.8003525390625,-3.100057142399251,-0.6265221255481243,1.8626447601988911
1684099781932370400,4.810370361328125,-2.2579893551588057,-0.20355156477689743,1.9886720635294912
1684099781942388500,4.820388427734375,-1.4275833641394973,0.30259120019972324,2.107491919699311
1684099781952407600,4.830407470703125,-0.7944587715864181,0.741408733922243,2.0368147476688025
1684099781962425300,4.84042529296875,-0.33153438608944413,1.0756704991489647,1.8864634426817297
1684099781972444400,4.8504443359375,0.11592442698925733,1.300701489806175,1.7136492537349461
1684099781982462500,4.86046240234375,0.5721481458038091,1.2898638694494962,1.4547002113848924
1684099781992481500,4.8704814453125,0.9993845473259687,1.0876496907562017,1.0095914685636758
1684099782002499600,4.88049951171875,1.676345651257038,0.9545376898616552,0.21198913825452326
1684099782012518400,4.890518310546875,2.7718285198569297,0.9083540308356285,-0.5680863031923771
1684099782022536400,4.900536376953125,3.9887767906993625,0.6901368118464947,-1.0692670618474482
1684099782032555500,4.910555419921875,5.31685202512145,0.2686655497223139,-1.154539453202486
1684099782042573600,4.920573486328125,6.0378375642180435,-0.334024449339509,-0.8186813586950301
1684099782052592600,4.930592529296875,5.981295592784881,-0.8896516684532165,-0.2392170446589589
1684099782062610700,4.940610595703125,5.709446736851334,-1.3714239622831343,0.053041854357719416
1684099782072628500,4.95062841796875,5.249706826609373,-1.8549170885562896,0.367053735499084
1684099782082647600,4.9606474609375,4.481281490945816,-2.256349186736345,1.1010200444608926
1684099782092665300,4.970665283203125,3.9288884314477444,-2.3174685490876437,2.0746549412414432
1684099782102684400,4.980684326171875,3.7430718453258276,-2.291100766643882,2.785475352415442
1684099782112702700,4.99070263671875,3.514311020490527,-2.3368904579162595,3.137422996458411
1684099782122721500,5.000721435546875,3.1212469376832246,-2.363367545953393,3.060470689681172
1684099782132739600,5.010739501953125,2.6781904512166976,-2.254072473976016,2.4129922853440045
1684099782142758700,5.020758544921875,2.2604367483109233,-2.0618080268889662,1.6332143655389546
1684099782152776400,5.0307763671875,1.8415952501684427,-1.865990855756402,1.0230430708110332
1684099782162795500,5.04079541015625,1.416110076227784,-1.7430822689682244,0.6069464874625206
1684099782172813300,5.050813232421875,0.9806482826739549,-1.6005588811278342,0.4817985973149538
1684099782182831600,5.06083154296875,0.6004986264973878,-1.361049867784977,0.6115250474244356
1684099782192850700,5.0708505859375,0.21792086639106273,-0.9742314013689756,0.8904378503948449
1684099782202868500,5.080868408203125,-0.17629647810459137,-0.4328782068014145,1.2600357174187897
1684099782212887600,5.090887451171875,-0.5388976181089877,0.07045242336392402,1.5974433794558047
1684099782222905300,5.1009052734375,-0.9246341345071792,0.33816111075282096,1.8143325647115707
1684099782232924400,5.11092431640625,-1.2908619405761361,0.36342239325940606,1.8759341576218604
1684099782242942500,5.1209423828125,-1.6355740804076193,0.39174773951172825,1.8078128075540065
1684099782252961300,5.130961181640625,-1.8385013758063316,0.5819342112809419,1.573106226056814
1684099782262979600,5.1409794921875,-1.8528098871439693,0.8462117551773786,1.1574176389873028
1684099782272998700,5.15099853515625,-1.7786498414337635,1.136042258003354,0.6697849286913872
1684099782283016400,5.161016357421875,-1.730473547285795,1.352127141138911,0.10681786820888518
1684099782293035500,5.171035400390625,-1.766374881750345,1.4634826527774334,-0.3746837919861078
1684099782303053600,5.181053466796875,-1.7475041770637034,1.4709966816693543,-0.8121890740662813
1684099782313071600,5.191071533203125,-1.6426795284986495,1.4149854561120272,-1.1615467016160488
1684099782323090400,5.20109033203125,-1.3635194727689026,1.2499392708182333,-1.462792916947603
1684099782333108500,5.2111083984375,-0.9054843206182122,1.0585703112661837,-1.7374813802212477
1684099782343127600,5.22112744140625,-0.3781903388023376,0.8312363043636083,-1.7453145580649374
1684099782353145600,5.2311455078125,0.2613561034917831,0.6682955669164657,-1.3825789780259132
1684099782363164400,5.241164306640625,0.9571376432269811,0.5879571248322725,-0.8980407266139984
1684099782373182500,5.251182373046875,1.3335937055826186,0.6507435436129569,-0.6443319230049848
1684099782383201500,5.261201416015625,1.2513631661415099,0.7623363711386919,-0.6241033739686012
1684099782393219600,5.271219482421875,0.8649462662637233,0.8120131329774856,-0.4514554814994335
1684099782403238700,5.28123876953125,0.4585299499303102,0.8241665121078491,-0.2362918048620224
1684099782413256400,5.29125634765625,0.21166239051818847,0.8947989682137966,0.03566752570867538
1684099782423274500,5.3012744140625,0.16293372318446636,1.022110758396983,0.3842617676705122
1684099782433293600,5.31129345703125,0.17736966029405593,1.0968871824398636,0.5226221906125545
1684099782443311400,5.321311279296875,0.12880173647999762,0.9617802083358168,0.3651853112787008
1684099782453330400,5.331330322265625,0.06271335354447365,0.7394017780140042,0.10647884551286697
1684099782463348700,5.3413486328125,-0.0673947893589735,0.5532350632801651,-0.23895956276655195
1684099782473367600,5.351367431640625,-0.31865912242531774,0.3094467651829123,-0.5549281309336423
1684099782483385600,5.361385498046875,-0.6826753899246454,0.09563011924028396,-0.915669322285056
1684099782493404700,5.37140478515625,-1.1209750372529028,-0.018143851716816425,-1.1439976009219883
1684099782503422500,5.38142236328125,-1.502555018493533,0.06287380480319261,-1.184325519657135
1684099782513441500,5.391441650390625,-1.6895020699501038,0.29514497584700583,-1.1859417226821183
1684099782523459300,5.401459228515625,-1.653982428279519,0.5895668981164693,-1.2327134107291697
1684099782533477600,5.4114775390625,-1.4195476494610308,0.8768784038588404,-1.1828098543971777
1684099782543496700,5.42149658203125,-1.0839940908581018,1.0767679389968514,-0.9586883798003196
1684099782553514500,5.431514404296875,-0.8090390856027603,1.1727443874567747,-0.6548714371979236
1684099782563533600,5.441533447265625,-0.6223538999527692,1.2679638800695539,-0.4707558097749948
1684099782573551400,5.45155126953125,-0.41695699957013127,1.4564415020942687,-0.3853367034256458
1684099782583570400,5.4615703125,-0.23947511107325553,1.7560931417107581,-0.4219704438179731
1684099782593588500,5.47158837890625,-0.14077274478077886,1.9441502002358435,-0.5830038863390684
1684099782603607300,5.481607177734375,-0.0734820003181696,1.8475696484029291,-0.8907090685516595
1684099782613625600,5.49162548828125,0.006384732601046562,1.4711384282276034,-1.2718553345501422
1684099782623644700,5.501644775390625,0.21976327938735485,0.9120976012781262,-1.5795856512039899
1684099782633662500,5.511662353515625,0.46464638698399063,0.3170791597574949,-1.5609306350946426
1684099782643680500,5.521680419921875,0.5994745441466569,-0.28257687843590973,-1.270664078938961
1684099782653699300,5.53169921875,0.5199310518324375,-0.7971881965503096,-0.8306587967365979
1684099782663717600,5.541717529296875,0.23754034361839294,-1.1746841233476997,-0.4124602726727724
1684099782673736400,5.551736328125,-0.059819385668635365,-1.41596862193048,-0.08970540536642074
1684099782683754500,5.56175439453125,-0.23836218139529228,-1.4131225848495959,0.08083119403719902
1684099782693773600,5.571773681640625,-1.2919751625150442,-0.6505442216485738,-0.627091449868679
1684099782703791600,5.58179150390625,-10.77314993033409,5.085785845953226,-9.706417355400323
1684099782713810400,5.591810546875,-1.9659259787142276,6.7178259070158,-6.752051417222619
1684099782723828500,5.601828369140625,5.7256853394687175,0.9806655260697007,4.524004195863008
1684099782733847600,5.61184765625,0.9826467630147934,1.4922045971319078,1.3662901065260171
1684099782743865600,5.621865478515625,-0.4714806169182062,2.269573994490504,-2.646847802969813
1684099782753884700,5.631884765625,1.5467694232732057,1.0010732310652732,0.3876671921998262
1684099782763902500,5.64190234375,0.41243981440663335,0.09356997184008359,0.26663199806809423
1684099782773920500,5.65192041015625,0.282639714539051,0.1471700446024537,0.10987959386706352
1684099782783939600,5.661939697265625,0.07454349206984043,0.2731751361012459,-0.004203296908736229
1684099782793957400,5.671957275390625,-0.14622458044588565,0.32731179995834825,-0.06879121215343476
1684099782803976400,5.6819765625,-0.2938601967334747,0.3523956800714135,-0.011723171019554137
1684099782813994500,5.691994384765625,-0.3247749749571085,0.3188198659449816,0.029541736304759977
1684099782824013600,5.702013671875,-0.2373977202773094,0.31415552739575503,0.06978840649724007
1684099782834031600,5.712031494140625,-0.11569558666944503,0.33954482019618154,0.048293198525905606
1684099782844050400,5.722050537109375,0.053015550872683524,0.36802433409690855,0.06659340984821319
1684099782854068500,5.732068359375,0.18129472478330133,0.3929379722096026,0.10184417144954204
1684099782864087600,5.742087646484375,0.33485797755420205,0.4303260381005704,0.052693479311466215
1684099782874105300,5.752105224609375,0.4183569294959307,0.46728331135883927,0.022576573467254637
1684099782884123600,5.76212353515625,0.4646113156706094,0.46554158225804565,0.00042319384813308713
1684099782894142700,5.772142822265625,0.4243225599020719,0.5014934778660536,-0.07498831322789191
1684099782904160500,5.782160400390625,0.30625030722916124,0.5334254703082144,-0.1728489679992199
1684099782914179600,5.7921796875,0.102342184099555,0.5377196603707969,-0.18525953676104545
1684099782924197400,5.802197265625,-0.12209142518639564,0.41938422671705483,-0.19342063138484955
1684099782934216400,5.812216552734375,-0.3217600110501051,0.2799054672695696,-0.17483429659754038
1684099782944234500,5.822234375,-0.4778407995998859,0.17217296843379734,-0.15302870750278233
1684099782954253300,5.83225341796875,-0.5899620349138974,0.1133824874214828,-0.16458616656661032
1684099782964271600,5.842271728515625,-0.6188169579982757,0.07516659240424632,-0.17105390127599238
1684099782974290700,5.852290771484375,-0.5990092647224664,0.06930887935198843,-0.110921211874485
1684099782984308500,5.86230859375,-0.4566659096240997,0.08809051751568912,-0.047695524893701075
1684099782994326500,5.872326416015625,-0.27680326347053047,0.09210179898366332,-0.005183247856795787
1684099783004345300,5.882345458984375,-0.14941782352924346,0.12600107291080057,0.015804887375235558
1684099783014363600,5.89236376953125,-0.06408931807279586,0.1815380320198834,0.025723054799437522
1684099783024382500,5.902382568359375,-0.023808161088824272,0.22762181086800992,0.03890139306336641
1684099783034400500,5.912400390625,0.019625322446227073,0.35033443669266995,-0.009838672447204589
1684099783044419600,5.922419677734375,0.026010055047273634,0.4189013385709375,-0.059548459772765634
1684099783054437400,5.932437255859375,0.03215747176110744,0.6368715239964425,-0.030830314810574053
1684099783064456400,5.94245654296875,0.03364040379524231,0.7101147471226752,-0.21049363899976015
1684099783074474500,5.952474609375,0.07880407212376594,0.7107772296193987,-0.18592063101828096
1684099783084493300,5.962493408203125,0.07899813339114188,0.6543943212054669,-0.21828297770172356
1684099783094511600,5.97251171875,0.09339783014357089,0.5373129062008112,-0.15719079561829566
1684099783104529700,5.98252978515625,0.05907645834684372,0.390667396929115,-0.09092676385492086
1684099783114548500,5.992548583984375,-0.008691840499639511,0.3323158187907189,-0.052043490970134734
1684099783124566500,6.00256640625,-0.0766752434015274,0.34838396021202206,-0.04579319840371608
1684099783134585600,6.012585693359375,-0.1347153444379568,0.3418419181574136,-0.008072539557516575
1684099783144603400,6.022603271484375,-0.14923603722155093,0.35526166396178305,0.010977905610203743
1684099783154622500,6.03262255859375,-0.09611994858384132,0.3329909415733069,0.013241174367070197
1684099783164640500,6.042640625,-0.04130874646604061,0.32815921056792136,-0.0034042554855346677
1684099783174659600,6.05265966796875,-0.03758125037550926,0.31418738383874295,0.006945289093255996
1684099783184677600,6.062677734375,-0.08592997848093509,0.2954916703928262,-0.022558745549619195
1684099783194696400,6.072696533203125,-0.12217618086040019,0.29622429551631213,-0.01450461843162775
1684099783204714500,6.082714599609375,-0.1829267098993063,0.30909795174524185,-0.00795329709202051
1684099783214733600,6.092733642578125,-0.2886830863565206,0.3088273911755532,0.023359248277544972
1684099783224751400,6.10275146484375,-0.36917876482903955,0.28822767073921857,0.07925619980543851
1684099783234769700,6.112769775390625,-0.5249129318982363,0.2868670499105006,0.10568594156950711
1684099783244788500,6.12278857421875,-0.6855962458074093,0.28881270408555865,0.17701602455079554
1684099783254806500,6.132806640625,-0.8343892154365777,0.2788135803796351,0.23316461275219916
1684099783264825600,6.14282568359375,-0.9643640873491763,0.278852012693882,0.28933190565407274
1684099783274843400,6.152843505859375,-0.9882821385532617,0.26189897819682956,0.31127894904613496
1684099783284862500,6.162862548828125,-0.98918054869771,0.26050460122898217,0.40235593502670525
1684099783294880500,6.172880615234375,-0.9575491466373205,0.2865491430677473,0.4348942227989435
1684099783304899300,6.1828994140625,-0.9263549669504165,0.2979828296214342,0.44788872892856596
1684099783314917600,6.192917724609375,-0.8928928423315287,0.3418982514545321,0.5047282220035791
1684099783324935400,6.202935302734375,-0.8726374052882194,0.3979275971904397,0.5884557220041752
1684099783334954500,6.21295458984375,-0.8882686896622181,0.49570598050579423,0.687896339443326
1684099783344972500,6.22297265625,-0.953562707349658,0.6248243817195296,0.8315916936725377
1684099783354991400,6.232991455078125,-1.1251222200602293,0.7495845877237618,1.0369576143950223
1684099783365009700,6.243009765625,-1.4503829327076672,0.7724906854063271,1.262238195899129
1684099783375028700,6.25302880859375,-2.0938561930567023,0.8552136845394969,1.7117314374148844
1684099783385046500,6.263046630859375,-2.7122961344361305,0.9610745442844927,1.9229133509397505
1684099783395065600,6.273065673828125,-3.3153052824497222,1.169083965253085,1.4567343475610017
1684099783405083400,6.28308349609375,-4.173231440818309,1.2967100820824504,0.3360784592598676
1684099783415102500,6.2931025390625,-4.791820435279607,1.3208581426501274,-1.6079437306821345
1684099783425120500,6.30312060546875,-4.517593159776926,1.4625067934826015,-3.4936183610737324
1684099783435139300,6.313139404296875,-3.634842356753349,1.749741142335534,-4.540596434223652
1684099783445157600,6.32315771484375,-2.3530028038054702,1.9136372808113693,-4.789131050065159
1684099783455175400,6.333175537109375,-0.907028919711709,1.7023840556159615,-4.664067915591597
1684099783465194500,6.343194580078125,0.32158231639564033,1.2807745540648698,-3.9162037219196555
1684099783475212500,6.353212646484375,1.3159247779011725,0.6076648648649454,-3.249000626415014
1684099783485231400,6.3632314453125,2.087227130305767,-0.019325754977762698,-3.047306087681651
1684099783495249400,6.37324951171875,2.7590309976041314,-0.3264844092234969,-2.987912818470597
1684099783505268500,6.3832685546875,3.257870746091008,-0.2765191858321428,-2.6063521264523266
1684099783515286500,6.39328662109375,3.648738780158758,0.015317688380181788,-1.8593670537024736
1684099783525305600,6.4033056640625,3.953935194420814,0.3630164428070187,-1.062555581510067
1684099783535323600,6.41332373046875,4.063036205130815,0.6645420596018433,-0.3463292196393013
1684099783545342500,6.423342529296875,3.9966549767285584,0.8861006979733705,0.2405266659528017
1684099783555360500,6.433360595703125,3.723995388934016,0.8752429116114974,0.6691115594744682
1684099783565378300,6.44337841796875,3.2946541240870952,0.6024690497875214,0.8784200803428888
1684099783575397400,6.4533974609375,2.740154447698593,0.12849720057547093,0.7502718393355607
1684099783585415700,6.463415771484375,2.008826378285885,-0.4360816790178418,0.3080103026390075
1684099783595434500,6.4734345703125,1.1450643533706664,-0.8446291621610522,-0.3339583983659744
1684099783605452500,6.48345263671875,0.2135994960606098,-0.9038380147159099,-0.8241799561113119
1684099783615471600,6.4934716796875,-0.6793067902743816,-0.6671300302684307,-1.0093652585923671
1684099783625489400,6.503489501953125,-1.5313339537322521,-0.39863983711302275,-0.9651292265027761
1684099783635508500,6.513508544921875,-2.2132447890251874,-0.22152152123153207,-0.6767004071682691
1684099783645526500,6.523526611328125,-2.493071199709177,-0.07699030070006847,-0.09105565093159675
1684099783655545600,6.533545654296875,-2.354581597429514,0.07322334938198327,0.6271218450069427
1684099783665563600,6.543563720703125,-1.863088704574108,0.12255553556680679,1.2201461901009083
1684099783675581400,6.55358154296875,-1.279136723729968,0.026453707161545752,1.6898194653362035
1684099783685600500,6.5636005859375,-0.7296358785420656,-0.18740648566186427,2.0401088207781313
1684099783695618300,6.573618408203125,-0.21485504907965658,-0.415461792576313,2.2011124526828527
1684099783705637000,6.58363720703125,0.19962007054686545,-0.6342652870208024,2.2598417050272226
1684099783715655200,6.5936552734375,0.45913083843290803,-0.7947755824506282,2.221020099201798
1684099783725674200,6.60367431640625,0.502016624957323,-0.8453852412253617,2.145653600311279
1684099783735692300,6.6136923828125,0.39740708044767376,-0.7452870366603136,1.8136188634842634
1684099783745711000,6.623711181640625,0.1844037967145443,-0.5874681722715497,1.0756138005256652
1684099783755729200,6.633729248046875,0.042161563903093335,-0.3427963693380356,0.39307226611375806
1684099783765748200,6.643748291015625,0.16075637914538382,-0.01788403173685074,-0.025336101308465003
1684099783775766000,6.65376611328125,0.46487551956474776,0.3108922878161073,-0.2470323945850134
1684099783785785000,6.66378515625,0.7490887670308352,0.4476166339889168,-0.5113678061485291
1684099783795803100,6.67380322265625,0.940927097660303,0.31965339415967464,-0.7688403462052344
1684099783805821200,6.6838212890625,1.06260585039258,-0.023709084628522396,-0.895592748939991
1684099783815840300,6.69384033203125,1.2515303394019603,-0.4729793310433626,-0.7043202354997397
1684099783825858000,6.703858154296875,1.558777256453037,-0.8334709315478801,-0.29533611450493336
1684099783835877000,6.713877197265625,1.956238112914562,-0.9022942924052476,0.19646072973310946
1684099783845895200,6.723895263671875,2.2885838153868914,-0.6415837933406233,0.6141197400927543
1684099783855914200,6.733914306640625,2.425301731818914,-0.1214525427609682,0.921409911763668
1684099783865932300,6.743932373046875,2.3998797057926655,0.41437049020826816,1.1993179216057062
1684099783875951400,6.753951416015625,2.260283019053936,0.7755354599297046,1.354195764106512
1684099783885969200,6.76396923828125,1.974422004380822,0.876614199964702,1.3671692274481058
1684099783895988200,6.77398828125,1.5682570324599743,0.8040645120605826,1.2981500517576932
1684099783906006000,6.784006103515625,1.1400199294626712,0.6623162002459168,1.162142913943529
1684099783916024300,6.7940244140625,0.7134574816793203,0.5508312170088291,1.0246779785364866
1684099783926043400,6.80404345703125,0.19581074139177798,0.5410466128364205,0.7537468219697475
1684099783936061200,6.814061279296875,-0.4481868350923061,0.41345308310240503,0.344834012645483
1684099783946080300,6.824080322265625,-1.085164888203144,0.06962561715096235,-0.04209025223255157
1684099783956098000,6.83409814453125,-1.5079063163936137,-0.41293782705664633,-0.25234862117171286
1684099783966117000,6.8441171875,-1.553452846559882,-0.9185521842449903,-0.18244389481842516
1684099783976135200,6.85413525390625,-1.0504057095110415,-1.2251996740981936,0.14783961442708968
1684099783986154000,6.864154052734375,-0.2728250074893236,-1.2293415962085128,0.5648462983578443
1684099783996172300,6.87417236328125,0.43492286437153815,-1.0160480973571537,0.9228548498749732
1684099784006191400,6.88419140625,0.9317863443493842,-0.7907967419475317,1.1897416994869707
1684099784016209200,6.894209228515625,1.243188627514243,-0.6528104130148887,1.3943378048807382
1684099784026227200,6.904227294921875,1.4248089309900998,-0.6009878713190555,1.5463742864757775
1684099784036246000,6.91424609375,1.5087585493087767,-0.5978069031953811,1.6183336072713135
1684099784046264000,6.92426416015625,1.5428268231272697,-0.640407735298574,1.6495055751264094
1684099784056283100,6.934283203125,1.5597838031470774,-0.6874494724586606,1.5830840147137641
1684099784066301200,6.94430126953125,1.5559820727765559,-0.5546174575492739,1.448824012827873
1684099784076320300,6.9543203125,1.4526573073804379,-0.2962593668296933,1.2121370711684227
1684099784086338300,6.96433837890625,1.2670932347148656,-0.03473024485856294,0.9981804322332143
1684099784096357000,6.974357177734375,1.0523661959290505,0.1072594744965434,0.7931880209982395
1684099784106375200,6.984375244140625,0.8030535814523696,0.19130992284119128,0.6141384447932243
1684099784116394200,6.994394287109375,0.5964145720541477,0.2923258267730474,0.4419505710512399
1684099784126412000,7.004412109375,0.5169043974876404,0.46340164761990305,0.2921253357648849
1684099784136430300,7.014430419921875,0.5427537090152502,0.7177788520097732,0.1408119077473879
1684099784146449200,7.02444921875,0.5762590882539749,0.9917471843153238,0.02389057867527008
1684099784156467200,7.03446728515625,0.532229976913333,1.2212933143094182,-0.008052958074212075
1684099784166486300,7.044486328125,0.4568348364502191,1.4066530965745447,0.011387655454874038
1684099784176504000,7.054504150390625,0.37271804487109184,1.5399083053320646,0.06722001731395721
1684099784186523100,7.064523193359375,0.2536585347265005,1.6096452739030123,0.06892565218806267
1684099784196541200,7.074541259765625,0.11543956608176231,1.5580638474866746,0.04365677089691162
1684099784206560300,7.084560302734375,-0.028962475112080572,1.3011486490517854,-0.006691022071242332
1684099784216578300,7.094578369140625,-0.18518822509050367,0.8906807192400097,-0.052886956056952476
1684099784226597000,7.10459716796875,-0.3355658335626125,0.45031712511926886,-0.11553192054033279
1684099784236615200,7.114615234375,-0.4376245245456695,0.11160422570258378,-0.1785819586932659
1684099784246634200,7.12463427734375,-0.5146072264611721,-0.053013797307014464,-0.27986966530382634
1684099784256652000,7.134652099609375,-0.6087941611558199,-0.0928591932222247,-0.3421796987444162
1684099784266670300,7.14467041015625,-0.679966130965948,-0.07078676988482475,-0.3081616938084364
1684099784276689400,7.154689453125,-0.7012661086261271,-0.00829319657087326,-0.22245208007991313
1684099784286707200,7.164707275390625,-0.7366407888680696,0.11953560322374104,-0.10253390727937221
1684099784296726300,7.174726318359375,-0.7590262236773967,0.29833675762563944,0.0632166268914938
1684099784306744000,7.184744140625,-0.777394239538908,0.4410393014252186,0.18643559480309485
1684099784316763100,7.19476318359375,-0.7605056485801934,0.44082653545737266,0.1934481039136648
1684099784326781200,7.20478125,-0.7087626018613576,0.31033728428184987,0.033925065955519675
1684099784336800000,7.214800048828125,-0.6428793861091137,0.08036679139584302,-0.30190146436989307
1684099784346818300,7.224818359375,-0.566208234360814,-0.14527210202664137,-0.5785147582262754
1684099784356837400,7.23483740234375,-0.41735447445511814,-0.24242840792089698,-0.7478881590694189
1684099784366855200,7.244855224609375,-0.233345814538002,-0.19634967057406902,-0.8085574395656585
1684099784376874200,7.254874267578125,-0.03723053724169731,-0.1348091602012515,-0.778835670518875
1684099784386892000,7.26489208984375,0.16487667394578456,-0.09141746998131274,-0.7018494614720344
1684099784396910000,7.27491015625,0.34033027148544787,-0.05008768072724342,-0.5204571215331554
1684099784406929200,7.28492919921875,0.531196542212367,-0.03081745532900095,-0.38559973827600474
1684099784416947200,7.294947265625,0.7506663916110992,0.044564825652539726,-0.28628187043368813
1684099784426966300,7.30496630859375,0.8946323794752359,0.15133622437119484,-0.1836754824399948
1684099784436984000,7.314984130859375,0.9684119014352559,0.3159501557275653,-0.033684827458858486
1684099784447003100,7.325003173828125,0.9546978488594293,0.4987015090599656,0.14362696516811846
1684099784457021200,7.335021240234375,0.828069949287176,0.5985480769515037,0.2672527603149414
1684099784467040000,7.3450400390625,0.6435317125380039,0.5749053355574607,0.29474808548390863
1684099784477058000,7.35505810546875,0.4465133489221334,0.46581426171958445,0.2654214532345533
1684099784487076400,7.365076416015625,0.33075521841049194,0.24455869794785975,0.25338088682889937
1684099784497095200,7.37509521484375,0.23455635937154293,-0.010183540362119674,0.21904490198493
1684099784507113200,7.38511328125,0.15658815355002878,-0.18333675200492142,0.20272271273732184
1684099784517132300,7.39513232421875,0.10674480297267436,-0.22468261561095712,0.2670797418355942
1684099784527150000,7.405150146484375,0.10738602348566055,-0.20686668067425487,0.392895155981183
1684099784537169200,7.415169189453125,0.1228729309529066,-0.12149608964174985,0.48598611213266846
1684099784547187200,7.425187255859375,0.07810381489992141,0.00907090294510126,0.5315887564003468
1684099784557206300,7.435206298828125,0.005486322456598282,0.20815058300495146,0.5013052618175745
1684099784567224300,7.445224365234375,-0.04664776940643787,0.3689063776284456,0.4747375728875398
1684099784577243100,7.4552431640625,-0.0063525838971138,0.4793225625902414,0.45355333056151864
1684099784587261200,7.46526123046875,0.10910568688511847,0.48718818139880893,0.3864923032015562
1684099784597280300,7.4752802734375,0.24763620569705963,0.39385143379271026,0.2911772412598133
1684099784607298000,7.485298095703125,0.389185780069232,0.20996172408014535,0.1974170075446367
1684099784617316400,7.49531640625,0.46609307866096494,0.037649347175657745,0.09244973563849926
1684099784627335200,7.505335205078125,0.4914619131952524,-0.12292846053242683,-0.033496026888489724
1684099784637353200,7.515353271484375,0.5315349803864956,-0.16343904235810042,-0.061356678238511084
1684099784647372300,7.525372314453125,0.5720750805675983,-0.11348901653587817,-0.03378244261443615
1684099784657390000,7.53539013671875,0.5728811362534761,0.0625996640369296,0.017210662519931794
1684099784667409200,7.5454091796875,0.5364923105329275,0.251253519411385,0.12060790863037109
1684099784677427200,7.55542724609375,0.44996378163695333,0.39099633662253613,0.23324761486053466
1684099784687446000,7.565446044921875,0.3736743226826191,0.42555940822064875,0.3378063059657812
1684099784697464300,7.57546435546875,0.3359235609591007,0.40293139682710166,0.48838323640227316
1684099784707483400,7.5854833984375,0.33975685551166535,0.35984921094775196,0.6246580852419138
1684099784717501400,7.59550146484375,0.3655781099885702,0.3362079308584332,0.7270347561329603
1684099784727519200,7.605519287109375,0.40496436395943164,0.2982064092442393,0.7950421244323254
1684099784737538300,7.615538330078125,0.4523480464249849,0.26976795800626274,0.8266162433475256
1684099784747556000,7.62555615234375,0.4713508530586958,0.30268501596301794,0.8556921157062053
1684099784757575200,7.6355751953125,0.4544903191506862,0.4119137447059154,0.8651397430092096
1684099784767593500,7.645593505859375,0.4064584019094705,0.3742129596039653,0.74796063978374
1684099784777612300,7.6556123046875,0.29441198539733887,0.29674568904191256,0.5018289934307336
1684099784787630300,7.66563037109375,0.1404103412091732,0.3059671063736081,0.23688100292682646
1684099784797649400,7.6756494140625,-0.035597383081912994,0.406530298101902,-0.13072364445328713
1684099784807667200,7.685667236328125,-0.20090952583551405,0.4893436058670282,-0.48640053815245626
1684099784817686300,7.695686279296875,-0.337635041052103,0.48686231044530864,-0.7643675847053527
1684099784827704000,7.7057041015625,-0.38225335045754905,0.4304068482518196,-0.9493822067946195
1684099784837723100,7.71572314453125,-0.33397301141321656,0.3597811141476035,-1.0341706140249967
1684099784847741400,7.725741455078125,-0.1846820291340351,0.24188392578065393,-0.9939110843509436
1684099784857759200,7.73575927734375,-0.03401274423897266,0.16800211248993874,-0.8887263703018426
1684099784867778300,7.7457783203125,0.10373626880645752,0.19357465290278195,-0.7527075420498848
1684099784877796400,7.75579638671875,0.2633008078187704,0.3074053224831819,-0.5336725769370794
1684099784887815200,7.765815185546875,0.4533019861489534,0.44234336976110933,-0.28735680618882176
1684099784897833500,7.77583349609375,0.6683066728323698,0.5912777936875819,-0.02424129180908203
1684099784907852300,7.785852294921875,0.8275877187281846,0.6303147958293557,0.15716449213325975
1684099784917870300,7.795870361328125,0.8709984059095383,0.5032110954388975,0.20378361996710298
1684099784927889400,7.805889404296875,0.7496995924055576,0.20330811140984295,0.045849312505126
1684099784937907200,7.8159072265625,0.5425099633872509,-0.17667261794060468,-0.1799462327837944
1684099784947926300,7.82592626953125,0.34820553490519524,-0.4617030270084738,-0.30560850219428537
1684099784957944300,7.8359443359375,0.22294424751102923,-0.6389668888404965,-0.26861060466468334
1684099784967962400,7.84596240234375,0.21513795767426488,-0.6555743247702718,-0.005141454541683197
1684099784977981400,7.8559814453125,0.2770961089372635,-0.5584855311542749,0.38606209509074685
1684099784987999200,7.865999267578125,0.3882949687093496,-0.4416945504635572,0.7694628620177507
1684099784998018300,7.876018310546875,0.5141021995484829,-0.46512949432581663,1.1360820054918528
1684099785008036400,7.886036376953125,0.6082125618755817,-0.5906447564810514,1.4398580315619707
1684099785018055200,7.89605517578125,0.723963678124547,-0.7900286801844835,1.686295382863283
1684099785028073200,7.9060732421875,0.848512433335185,-0.9707993810936808,1.8557880261719226
1684099785038092300,7.91609228515625,0.9905050752997397,-1.1049144215509294,2.0541151342988013
1684099785048110300,7.9261103515625,1.150315113505721,-1.0537912602961064,2.232652669328451
1684099785058128400,7.93612841796875,1.2099679104357957,-0.6894824395909905,2.3357032939583062
1684099785068147500,7.9461474609375,1.0622130516827106,-0.09923749608248472,2.270387648960948
1684099785078165200,7.956165283203125,0.715237350833416,0.4619754142090678,1.9835580815166234
1684099785088184300,7.966184326171875,0.29218028082251546,0.7714537435740232,1.5764321556091307
1684099785098202000,7.9762021484375,-0.07602993123531342,0.7722279428169131,1.0905372288912534
1684099785108221200,7.98622119140625,-0.22880641754269598,0.46463761915564533,0.5528711984038353
1684099785118239500,7.996239501953125,-0.136119366016984,0.050691491839289664,0.17551321877241133
1684099785128258300,8.00625830078125,0.255983178281784,-0.1894359456628561,0.029018589213490483
1684099785138276400,8.0162763671875,0.7587018140286207,-0.14598901812434195,0.05664835441708564
1684099785148294100,8.026294189453125,1.1592869399905203,0.11807400623857975,-0.01854571051597595
1684099785158313200,8.036313232421875,1.3190145606100558,0.39626375563144683,-0.23347908552885055
1684099785168331300,8.046331298828125,1.388569742873311,0.5224550173521042,-0.39187750337123867
1684099785178350300,8.056350341796875,1.499686769580841,0.461824023039639,-0.3536310670852661
1684099785188368400,8.066368408203125,1.725939995509386,0.3044938189506531,-0.17787936338186264
1684099785198387500,8.076387451171875,1.98984929061532,0.10909078157693147,0.08439736208617686
1684099785208405200,8.0864052734375,2.162811655861139,0.03262012083679437,0.28074352552890774
1684099785218424300,8.09642431640625,2.1444003853797913,0.09011164807975292,0.296569455692172
1684099785228442000,8.106442138671875,1.8367682684034108,0.12484569233059882,0.1198100362509489
1684099785238461200,8.116461181640625,1.2691565969854592,0.08094254545718431,-0.153473236399889
1684099785248479500,8.1264794921875,0.6014110651671886,0.030734453220665453,-0.3783043205708265
1684099785258497300,8.136497314453125,0.020084172129631043,-0.012757482503354548,-0.5458335548520088
1684099785268516400,8.146516357421875,-0.4266466189354658,0.061973933354020114,-0.606470102122426
1684099785278534400,8.156534423828125,-0.6876853270411492,0.3191600576847792,-0.4646078085392713
1684099785288553200,8.16655322265625,-0.8555284495770931,0.6019070319905877,-0.21405659217834472
1684099785298571300,8.1765712890625,-0.9741653503954409,0.7392018715277314,0.010945172384381294
1684099785308590300,8.18659033203125,-1.0946306356847286,0.5644368407741188,0.2509966220408678
1684099785318608400,8.1966083984375,-1.067365612140298,0.13096329842805862,0.48686464853286743
1684099785328627500,8.20662744140625,-0.8503460785031318,-0.2957455720886588,0.7063017647057771
1684099785338645200,8.216645263671875,-0.5255132358789444,-0.5599392370939255,0.9137935915410518
1684099785348664300,8.226664306640625,-0.20441315004229543,-0.43402708457559347,1.0996955178588628
1684099785358682400,8.236682373046875,-0.10744330663084983,0.029181670820713042,1.1309475652128458
1684099785368700200,8.2467001953125,-0.2864233247309923,0.6064116499334573,1.0392173760205508
1684099785378719200,8.25671923828125,-0.48843993502557276,1.04410514806211,1.0464040726542472
1684099785388737300,8.2667373046875,-0.548324787145853,1.1862559031978248,1.0965279937386512
1684099785398756400,8.27675634765625,-0.44497079565525055,1.0372297093346714,0.9969301399111747
1684099785408774400,8.2867744140625,-0.27006021895110605,0.6701818190544844,0.7402583948433399
1684099785418793200,8.296793212890625,-0.07119242807626724,0.28983780934959646,0.41675826212763784
1684099785428812300,8.306812255859375,0.17788813121020794,-0.051074353677034376,-0.18759470171034334
1684099785438831400,8.316831298828125,0.21056056675612925,0.1095513848260045,-0.3679430855542421
1684099785448849200,8.32684912109375,0.21573533904552458,0.37715631957948204,-0.5165758961856365
1684099785458867200,8.3368671875,0.09176233789622783,0.6595315379634499,-0.7114204228937625
1684099785468886300,8.34688623046875,-0.11387421646118163,0.821540839779377,-0.8359469662725925
1684099785478904300,8.356904296875,-0.26777883001565933,0.8752475877866148,-0.7492313903719187
1684099785488923400,8.36692333984375,-0.29268296964764595,0.7390855516716838,-0.5884089602530003
1684099785498941200,8.376941162109375,-0.13975158503949642,0.43535511830896134,-0.4694768758803606
1684099785508960300,8.386960205078125,0.11985972061157225,0.18401275157034397,-0.3099222737401724
1684099785518978300,8.396978271484375,0.2765139251351356,0.07925093910843134,-0.12573007394969463
1684099785528997000,8.4069970703125,0.2616892809689045,0.05975654956549406,-0.03947334773242473
1684099785539015200,8.41701513671875,-0.01605214013457298,0.06976648692637681,-0.028563246661424634
1684099785549034200,8.4270341796875,-0.44022330886721606,0.07305296125113964,-0.1199713642925024
1684099785559052300,8.43705224609375,-7.158982112818956,1.5427211707957087,-7.346070034050941
1684099785569070300,8.4470703125,-7.405263396775722,4.9492041231215,-12.964744613087177
1684099785579089400,8.45708935546875,6.919295404821634,1.743786325584352,4.162684912362694
1684099785589107200,8.467107177734375,2.244906001701951,0.7022621339261531,0.11805939319133758
1684099785599126300,8.477126220703125,-0.44969782417714593,1.1608752320952713,-3.90685254072845
1684099785609144300,8.487144287109375,2.5169307987242937,0.3213580061204731,0.7240186231821775
1684099785619163400,8.497163330078125,0.7757277676314115,-0.07886340109556914,-0.10758066927492618
1684099785629181400,8.507181396484375,0.8194979357749224,-0.22543621045723555,-0.1154611933916807
1684099785639200300,8.5172001953125,0.15762392633855343,-0.12244169992879032,0.13615677541792393
1684099785649218300,8.52721826171875,-0.3515338025450706,0.12882847835645078,0.04673194055855274
1684099785659237400,8.5372373046875,-0.7341945647597312,0.348228331258893,0.1273386781901121
1684099785669255200,8.547255126953125,-1.0415513719260692,0.45753027136847374,0.21885785498023033
1684099785679273500,8.5572734375,-1.0702145718306302,0.4578406524918973,0.33170331291556354
1684099785689292300,8.567292236328125,-0.9909761999428272,0.3657308163322508,0.35782384259998795
1684099785699310300,8.577310302734375,-0.7999725665718317,0.30243681335560973,0.3513824113756418
1684099785709329400,8.587329345703125,-0.559779662618041,0.2727203780710697,0.24459464604407546
1684099785719347500,8.597347412109375,-0.34902269650697704,0.33463856264986097,0.12271569456458091
1684099785729366300,8.6073662109375,-0.1576812094837427,0.4508947058115154,0.0321571795001626
1684099785739384300,8.61738427734375,-0.029054245048761366,0.4883947076443583,-0.018975334104895592
1684099785749403400,8.6274033203125,0.053335284346342084,0.4636844831492752,-0.10692980415076017
1684099785759421400,8.63742138671875,0.09690379243791103,0.37628808537758884,-0.13032733861207962
1684099785769440500,8.6474404296875,0.10146773935258388,0.25966230518594385,-0.14380699791014193
1684099785779458300,8.657458251953125,0.03369944050610065,0.16192776101231574,-0.15591186172366142
1684099785789476400,8.667476318359375,-0.09579904606640338,0.15406791435740888,-0.17409721449464557
1684099785799495400,8.677495361328125,-0.23647066856026647,0.1964675978653133,-0.2121542656883597
1684099785809513200,8.68751318359375,-0.33633155723810193,0.24002565762810407,-0.2184153719097376
1684099785819532300,8.6975322265625,-0.39973990730941295,0.27921704661399127,-0.18390724536925554
1684099785829550300,8.70755029296875,-0.38795243888199327,0.29743031030520795,-0.12233283272683619
1684099785839569400,8.7175693359375,-0.28571196159124373,0.3047606897259131,-0.06609773528575896
1684099785849587500,8.72758740234375,-0.13551964655816554,0.33197507906164975,-0.039804771643877024
1684099785859606300,8.737606201171875,-0.0046510406762361525,0.2706081716900691,-0.00964168857038021
1684099785869624300,8.747624267578125,0.04804126959145069,0.1626755837049335,-0.023070640594512224
1684099785879643400,8.757643310546875,0.05424012423157692,0.07865308281313628,-0.08948299478739499
1684099785889661400,8.767661376953125,0.03769873927533626,0.07724478691779077,-0.11264233657866715
1684099785899679500,8.777679443359375,0.04074117571115494,0.10535868237651884,-0.13069134961888193
1684099785909698600,8.787698486328125,0.02786708109080791,0.17902181141525506,-0.15568842823132872
1684099785919716400,8.79771630859375,-0.04118190521597862,0.2871892676021904,-0.16429215205609798
1684099785929735400,8.8077353515625,-0.07176116787493228,0.3677589611589908,-0.13637158721238374
1684099785939753200,8.817753173828125,-0.0660837067604065,0.36192214476428924,-0.12693272773772477
1684099785949772300,8.827772216796875,-0.044511926421523094,0.30339071654696015,-0.0966807973369956
1684099785959790600,8.83779052734375,0.026185996136069298,0.22949509392660108,-0.05707184052616358
1684099785969809400,8.847809326171875,0.060576926037669176,0.22287487206924705,-0.06425254581049085
1684099785979827500,8.857827392578125,0.09614274493753909,0.2387095335282385,-0.09628171501681208
1684099785989846500,8.867846435546875,0.08780512470304966,0.2939863073311746,-0.12894757469147444
1684099785999864300,8.8778642578125,0.07088380051851272,0.32978670217189937,-0.15091376117542385
1684099786009882400,8.88788232421875,0.027993922340869903,0.34333814806453883,-0.10891104109585284
1684099786019901200,8.897901123046875,-0.027039982616901395,0.3453923771806061,-0.09708207161426544
1684099786029919500,8.90791943359375,-0.06745674867928028,0.3228055380476639,-0.06542714254781604
1684099786039938600,8.9179384765625,-0.1061462525576353,0.2883226007473655,-0.05572042591720819
1684099786049956400,8.927956298828125,-0.15526421146988867,0.28858629318485035,-0.06639321110099554
1684099786059975400,8.937975341796875,-0.20457038643062114,0.31738932168520984,-0.07865348467193543
1684099786069993500,8.947993408203125,-0.23570845201611518,0.345262028799206,-0.09863134688287972
1684099786080012300,8.95801220703125,-0.22359598941802977,0.3626587154105305,-0.10399375069886445
1684099786090030300,8.9680302734375,-0.18503624939918517,0.3386134576302022,-0.11304309939928352
1684099786100049400,8.97804931640625,-0.08833236344754695,0.29459134228592737,-0.09299860169291496
1684099786110067500,8.9880673828125,-0.05324526797533035,0.28390418151691554,-0.09784662624597548
1684099786120085500,8.99808544921875,-0.028843232646584508,0.316237009844929,-0.10093633588962256
1684099786130104300,9.008104248046875,0.008771919998526573,0.3091301004491746,-0.10388371445313095
1684099786140122400,9.018122314453125,0.028842648124694822,0.3153904029529542,-0.09323226431831717
1684099786150141400,9.028141357421875,0.013158172258734703,0.33301775651499627,-0.09682217856906354
1684099786160159200,9.0381591796875,0.0185872115701437,0.33592209965437647,-0.08618607213385403
1684099786170178300,9.04817822265625,0.013669044390320777,0.3260032381104305,-0.08181947442218661
1684099786180196400,9.0581962890625,0.006890344035625457,0.30289354414716363,-0.09975070630162954
1684099786190215400,9.06821533203125,0.0010953940212726592,0.29641358927702527,-0.06929397404380143
1684099786200233500,9.0782333984375,0.011903788283467292,0.2817961763869971,-0.11303652352802455
1684099786210252300,9.088252197265625,0.040462943291664125,0.2938888931049965,-0.12938165525980294
1684099786220270300,9.098270263671875,0.1016717374920845,0.27150216138772665,-0.09584588088281452
1684099786230288400,9.108288330078125,0.14890052165687084,0.24794854131555183,-0.151632942295447
1684099786240307500,9.118307373046875,0.15670798053741455,0.28064214751366523,-0.16204788026064634
1684099786250325500,9.128325439453125,0.12799451175034046,0.307163768812269,-0.1177888326216489
1684099786260344300,9.13834423828125,0.07782616700232028,0.2996443696254864,-0.09786131235845387
1684099786270362400,9.1483623046875,0.004446458014845848,0.2800980489659123,-0.06370433734320104
1684099786280381400,9.15838134765625,-0.01315524964928627,0.2539301364758052,-0.07779379910267889
1684099786290399200,9.168399169921875,0.010838204878568649,0.26191863274537025,-0.1210002324162051
1684099786300418300,9.178418212890625,0.030671617117524145,0.2910778725385666,-0.12977887441646307
1684099786310436600,9.1884365234375,0.044265258184075354,0.30301527083069085,-0.14225352139044553
1684099786320455400,9.198455322265625,0.025075404545664787,0.3054885656090453,-0.13766593787185846
1684099786330473500,9.208473388671875,-0.05558452457785606,0.3036469563303515,-0.1241819311922416
1684099786340491300,9.2184912109375,-0.13570435547530652,0.27426473970254883,-0.09252559561999514
1684099786350510300,9.22851025390625,-0.18004852411448954,0.29642588250301777,-0.08615083642369135
1684099786360528400,9.2385283203125,-0.20581600257754323,0.31604780741576105,-0.07058036059252917
1684099786370547200,9.248547119140625,-0.19600947883427142,0.28030770966121926,-0.0484082580066286
1684099786380565500,9.2585654296875,-0.11492869395017623,0.25418193754609675,-0.03287161137983203
1684099786390584600,9.26858447265625,-0.09475801258087158,0.2545224032805301,-0.03813278331104666
1684099786400602400,9.278602294921875,-0.05297872599363327,0.26439481360055506,-0.04101775502967648
1684099786410621400,9.288621337890625,-0.03983282869458198,0.2624726864315569,-0.08575681387111544
1684099786420639200,9.29863916015625,-0.011608604729175567,0.28032738247606903,-0.06871447082252707
1684099786430658300,9.308658203125,-0.032789924445748325,0.29675575377820057,-0.07229209641385823
1684099786440676400,9.31867626953125,-0.058633390754461286,0.30703820620384065,-0.08151194284297525
1684099786450694400,9.3286943359375,-0.024339491486549375,0.2959061877441592,-0.07009461376904509
1684099786460713500,9.33871337890625,-0.02297814000546932,0.287024870820716,-0.05768320932358037
1684099786470731500,9.3487314453125,-0.02342120759785175,0.2941488044165075,-0.07479937566020525
1684099786480750300,9.358750244140625,-0.006214052209258079,0.2858076770506799,-0.07890662831594236
1684099786490768400,9.368768310546875,-0.03015782237648964,0.2685436403756961,-0.07272120397954714
1684099786500787500,9.378787353515625,-0.02133154184222221,0.2637050777707249,-0.05462454783874564
1684099786510805200,9.38880517578125,-0.013401333364844321,0.2508799733912572,-0.07659007673556915
1684099786520824300,9.39882421875,-0.013249942195415495,0.24659495301581918,-0.05897627677484415
1684099786530842400,9.40884228515625,-0.019233108258247374,0.2574680465446785,-0.05890955908102914
1684099786540861400,9.418861328125,-0.003965981021523475,0.2751503634306602,-0.05472620441520121
1684099786550879500,9.42887939453125,-0.008300210833549499,0.30009779421510174,-0.07996451247157528
1684099786560897300,9.438897216796875,-0.03283610167503357,0.2894763008271344,-0.07011642374205403
1684099786570916400,9.448916259765625,-0.00410042105615139,0.3022069866551086,-0.07389236665077041
1684099786580934400,9.458934326171875,-0.013822189125418662,0.34743126259706913,-0.06411232905562501
1684099786590953500,9.468953369140625,-0.00783610045313835,0.32002292159181084,-0.054880358363874254
1684099786600971500,9.478971435546875,-0.029845103165507314,0.3175348311031237,-0.018548445895756594
1684099786610990300,9.488990234375,-0.06476502537727355,0.33097755592428146,0.027446102032647468
1684099786621008400,9.49900830078125,-0.09874678995609283,0.3704062242647633,0.06652332202037796
1684099786631027500,9.50902734375,-0.2046592337578535,0.4124892795715481,0.13355338798649607
1684099786641045200,9.519045166015625,-0.3678296883076429,0.46018611963950096,0.22716469648396595
1684099786651064300,9.529064208984375,-0.6533019959241152,0.5166293434059247,0.3067931819342077
1684099786661082400,9.539082275390625,-1.0572498763173819,0.5300367777179926,0.4044545512737706
1684099786671100400,9.549100341796875,-1.49554835460186,0.4899128205897286,0.49700522653609513
1684099786681119500,9.559119384765625,-1.9565391416877507,0.5097088234277442,0.5654927065026014
1684099786691137300,9.56913720703125,-2.2741432021021843,0.5098131971176714,0.6471073060024529
1684099786701156000,9.579156005859375,-2.186156291091442,0.442269098948501,0.7888326022677123
1684099786711174000,9.589173828125,-1.5223270559340714,0.42115313608571886,0.8492207277350127
1684099786721193000,9.59919287109375,-0.6573199993938207,0.4853870137283578,0.7830510962568223
1684099786731211000,9.6092109375,-0.1245370647728443,0.6313928733896463,0.6344092255361378
1684099786741230000,9.61922998046875,-0.008855506628751755,0.8161540321744978,0.6224480079770088
1684099786751248100,9.629248046875,-0.15546762508749962,1.0912757722988724,0.7823764118656515
1684099786761267000,9.639266845703125,-0.42045127142667765,1.6124660304121672,1.290308106085658
1684099786771285000,9.649284912109374,-0.8441337798595427,2.135601577374339,1.6965128254950046
1684099786781303000,9.659302978515624,-1.3405021697968245,2.3499627054572105,1.7157947413310408
1684099786791322000,9.669322021484374,-1.4971137042224407,2.1803584184676406,1.5624021689519285
1684099786801340200,9.679340087890624,-1.5241478416204453,1.5846335822433233,0.8094991043299437
1684099786811359200,9.689359130859375,-1.448902338761091,1.0854333298809826,0.6262701966136693
1684099786821377000,9.699376953125,-1.3326035255014896,0.659474400948733,0.5456318948000669
1684099786831396000,9.70939599609375,-1.7926859655708074,0.13525894979536532,-0.03982581443190574
1684099786841414000,9.719413818359374,-2.631272048175335,-0.4443738526754081,-0.9438748415499925
1684099786851433000,9.729432861328124,-3.3881571681708094,-0.8887738627053797,-2.240757649850845
1684099786861451300,9.739451171875,-3.223713040423393,-1.1692439781203865,-3.1611727053582666
1684099786871470000,9.749469970703124,-2.1168892781198023,-1.1353427314318716,-3.690523911964893
1684099786881488100,9.759488037109374,-0.7501023279875516,-0.5280132360011339,-3.7054695521622896
1684099786891506000,9.769505859375,0.13562252241075037,-0.055901627703011034,-3.7373031987965106
1684099786901525000,9.77952490234375,0.3903396262794733,-0.010030249496549367,-4.230237522631883
1684099786911543000,9.78954296875,0.8370341769874096,-0.018195289643108844,-4.521813992342353
1684099786921561900,9.799561767578124,1.6945827342152595,-0.01478255859017372,-4.410136409142613
1684099786931580200,9.809580078125,2.7116911542803046,-0.15556129472032187,-3.598293956556916
1684099786941599200,9.81959912109375,3.5262311753869056,-0.7085125726230442,-2.264889636066556
1684099786951617000,9.829616943359374,3.8451696992754933,-1.4917211975291371,-0.7380512401878834
1684099786961636000,9.839635986328124,3.946836176070571,-1.92400553009063,0.6028565878003835
1684099786971654000,9.84965380859375,3.9526667819201946,-1.9006378062456846,1.5819564719885586
1684099786981672000,9.859671875,3.6994472231328484,-1.4754048535004258,2.0741665732026098
1684099786991691000,9.86969091796875,3.171114253658056,-0.6625543929159641,2.0584674842894075
1684099787001709000,9.879708984375,2.4809406169325112,0.49424511417299505,1.752967703166604
1684099787011728100,9.88972802734375,1.2597750206559897,1.4461998018041253,1.1875298686563969
1684099787021746200,9.89974609375,-0.3514993157535791,2.0358786358624696,0.44461073017120356
1684099787031765000,9.909764892578124,-1.9840128395467995,2.3937208909019825,-0.27739070796966553
1684099787041783000,9.919782958984374,-3.3644828625947234,2.558929865542054,-0.6531517737984657
1684099787051802000,9.929802001953124,-4.2442526039808985,2.53237065217942,-0.5579308198809624
1684099787061820000,9.93981982421875,-4.461610575792193,2.089583045782149,-0.06155483115911484
1684099787071839000,9.9498388671875,-3.8648113883346316,1.239488311691582,0.4308475777566433
1684099787081857000,9.95985693359375,-2.725976284742355,0.2780921342372894,0.633842677694559
1684099787091876000,9.9698759765625,-1.7542372847110033,-0.46075113311111926,0.5771896471023559
1684099787101894100,9.97989404296875,-0.9771370596826076,-0.9569479658737778,0.38309973815381526
1684099787111912000,9.989911865234374,-0.34209377402663227,-1.2790163122206926,0.18607786740660667
1684099787121931000,9.999930908203124,0.1179495030760765,-1.4478396779656408,0.088783614346385
1684099787131949000,10.009948974609374,0.21263035876750944,-1.6663830601692198,-0.338476168051362
1684099787141968100,10.019968017578124,0.1999362968891859,-1.7455150490731,-1.0018155738651753
1684099787151986200,10.029986083984374,0.4131564382433891,-1.3863976595312355,-1.4971896920680998
1684099787162005000,10.0400048828125,0.9794014974832534,-0.7825017918109893,-1.6360013659089803
1684099787172023000,10.05002294921875,1.7968331483781337,-0.2727458047732711,-1.5029080697149038
1684099787182042000,10.0600419921875,2.4029192196190357,-0.11121230377554893,-1.216938918492198
1684099787192060000,10.070059814453124,2.756911521232128,-0.1821370208263397,-0.6462298655807972
1684099787202079000,10.080078857421874,2.7945634987562893,-0.12936755366921424,0.003415361401438713
1684099787212097300,10.09009716796875,2.595293556821346,0.1401093124359846,0.410834717297554
1684099787222115000,10.100114990234376,2.1983903342425823,0.5854240992233157,0.5278215128213167
1684099787232134100,10.110134033203124,1.6997861480772494,1.164640283717215,0.6161281573057175
1684099787242152000,10.12015185546875,1.1247598164886234,1.6015744879111646,0.6407154860734939
1684099787252171000,10.1301708984375,0.4823416181504726,1.6508724795654415,0.7042910094052552
1684099787262189000,10.14018896484375,-0.17105214771032332,1.2155743521407245,1.0816852293938397
1684099787272208000,10.150207763671874,-0.659283408421278,0.35689766766577957,1.5457944407612085
1684099787282226200,10.16022607421875,-0.8173474797427653,-0.5518395172685384,1.9127923544198273
1684099787292245200,10.170245361328124,-0.6148258425354958,-1.2802505301907658,2.1976550057053563
1684099787302263000,10.180262939453126,-0.12831132261455058,-1.7207783749625085,2.4267946007251737
1684099787312282000,10.1902822265625,0.40621699436902997,-1.8897595616176723,2.527368021586537
1684099787322300000,10.2002998046875,0.7908861737966537,-1.9285422967374324,2.5720745937973257
1684099787332318000,10.21031787109375,0.9895581498384475,-1.7908602114483714,2.5453204423844813
1684099787342337000,10.2203369140625,0.995674586892128,-1.5307397872313857,2.457545128297806
1684099787352355000,10.23035498046875,0.9184043002068996,-1.2701383014991878,2.449627194780111
1684099787362374100,10.2403740234375,0.8972820172011852,-1.0069853777185083,2.5507190865576264
1684099787372392000,10.250391845703126,0.9972796840012073,-0.7169722118020058,2.46438169631958
1684099787382411000,10.260410888671874,1.1522633249640464,-0.37132746729552746,2.17416774713397
1684099787392429000,10.270428955078126,1.3515525561213493,0.03026274405568838,1.9351970784515142
1684099787402448000,10.28044775390625,1.568945599246025,0.439897145652771,1.7112030296266079
1684099787412466200,10.290466064453126,1.7046569689840076,0.7992921830922365,1.4645003053873777
1684099787422485000,10.300485107421874,1.8015093234956263,1.1029957284480332,1.1118167482852934
1684099787432503000,10.3105029296875,1.8108470606833695,1.3389502641797064,0.7524766559034586
1684099787442521000,10.32052099609375,1.7706787164241073,1.5612342942163346,0.44507074889838694
1684099787452540200,10.3305400390625,1.7323744124710558,1.745293223015964,0.2003197432488203
1684099787462558000,10.340557861328126,1.6437468654692171,1.820025515656173,-0.10603168626725673
1684099787472577000,10.350576904296876,1.4926023642778397,1.6437506648615001,-0.5069681098848581
1684099787482595000,10.360594970703126,1.240400458100438,1.1614403186321258,-0.7944961809873581
1684099787492614100,10.3706142578125,0.9407260221302509,0.3507718782618642,-0.835347246813774
1684099787502632200,10.380632080078126,0.6926029096990823,-0.41506899386644364,-0.6854127059340477
1684099787512651000,10.390651123046876,0.505782114970684,-0.928733971041441,-0.4431126005679369
1684099787522669000,10.4006689453125,0.32378713296353817,-1.0949956696048377,-0.11901333291530608
1684099787532688100,10.410688232421874,0.18186872527897358,-0.8948542055323719,0.15671791740953922
1684099787542706000,10.420705810546876,0.05518938778042793,-0.3615957623541355,0.3926391353935003
1684099787552724200,10.43072412109375,-0.17437690821886062,0.14672726927101612,0.6627028614759445
1684099787562743000,10.440742919921876,-0.5050818577468394,0.41457302704304455,0.8839929120391606
1684099787572761000,10.450760986328126,-0.8053507524788379,0.45292818440049887,1.108054180881381
1684099787582780200,10.4607802734375,-0.9964373879581689,0.3629083062574267,1.3432868320792912
1684099787592798000,10.4707978515625,-1.0643249292701482,0.17996026130914686,1.4999609103471039
1684099787602817000,10.480817138671876,-1.057232925182581,-0.00466769955009222,1.4595914905577898
1684099787612835000,10.4908349609375,-0.8834218341529368,-0.0531058595046401,1.2110650580227373
1684099787622854000,10.50085400390625,-0.5421528205126523,0.10324527041912078,0.8631026842236519
1684099787632872200,10.5108720703125,-0.23291677547097206,0.30783319250643254,0.5053209271997213
1684099787642891300,10.520891357421876,-0.10166413870751857,0.37368572085946794,0.09578384849727153
1684099787652909000,10.530908935546876,0.021931261301040648,0.3066466130703687,-0.26309271802604195
1684099787662927000,10.540927001953126,0.2226058093369007,0.190788237054646,-0.5466325962752103
1684099787672946000,10.55094580078125,0.43449967052340505,0.04871726915687322,-0.8144476666480303
1684099787682964000,10.5609638671875,0.6400725119948387,-0.16943068398833275,-1.070851116168499
1684099787692983000,10.570983154296876,0.8955413110136985,-0.3613178221955895,-1.194156008797884
1684099787703001000,10.5810009765625,1.1241741255551576,-0.5146940279617905,-1.152167463374138
1684099787713020200,10.591020263671876,1.3460931216716765,-0.4961664376243949,-1.0321019910573959
1684099787723038000,10.601037841796876,1.579115695604682,-0.33669074593931436,-0.8008055102646351
1684099787733057000,10.61105712890625,1.688268728762865,-0.12146744806915521,-0.4014005339980125
1684099787743074800,10.62107470703125,1.6698329083621501,0.0680327950015664,-0.08520107968449592
1684099787753094000,10.631093994140626,1.4603005156099795,0.15485826101750136,0.01110474686026573
1684099787763112200,10.6411123046875,1.117347494405508,0.16847060678452253,0.01922843208312988
1684099787773130000,10.6511298828125,0.7825257572084665,0.1071244499400258,-0.04457563930749893
1684099787783149000,10.661149169921876,0.4365753077536821,0.034065351209044456,-0.10989186882674694
1684099787793167000,10.6711669921875,0.13360066119432448,0.09512392328381537,-0.12277473127543925
1684099787803186000,10.68118603515625,-0.07401566880345344,0.32713498208671804,-0.06381400826275348
1684099787813204000,10.691203857421876,-0.20721885511279106,0.628749446208775,0.14214111052453518
1684099787823223000,10.70122314453125,-0.2970587005138397,0.7112681549414992,0.42153614405393597
1684099787833241000,10.711240966796876,-0.33446985501945015,0.46527562479823825,0.6934130570381879
1684099787843260200,10.72126025390625,-0.29788755255341526,-0.1213850304827094,0.9979974768817425
1684099787853278000,10.73127783203125,-0.15778993055522442,-0.8873413456842303,1.1992670682013034
1684099787863297000,10.741297119140626,0.0753249978363514,-1.5709809044659138,1.257245209917426
1684099787873315000,10.751315185546876,0.3102174572944641,-2.0163851231023666,1.3368968387812374
1684099787883332900,10.761332763671875,0.551816136392951,-2.1591537178754807,1.5202999340206385
1684099787893352000,10.77135205078125,0.8389274433881044,-1.9421976048633456,1.7162632356256247
1684099787903370000,10.781369873046875,1.050242627903819,-1.5452572651445864,1.827012013542652
1684099787913389000,10.79138916015625,1.1562591166019438,-1.1571490511789917,1.8796821119785307
1684099787923407000,10.801406982421875,1.214005203127861,-0.8858122364208102,2.0489988141983746
1684099787933426000,10.811426025390626,1.2621388271778822,-0.7763333323091268,2.1398954751759764
1684099787943444000,10.82144384765625,1.3403893570721148,-0.6891361103713513,2.064056098076701
1684099787953463000,10.831463134765626,1.4960218173325062,-0.4973416188836097,1.8508955779552458
1684099787963480800,10.841480712890625,1.698287433952093,-0.08209609940648079,1.6322370449393986
1684099787973500000,10.8515,1.7613158447951078,0.48265170701295135,1.3700871607214211
1684099787983518200,10.861518310546876,1.6961100899130106,1.036833111232519,1.0342255590826273
1684099787993537000,10.871537109375,1.5704004742294548,1.4581088507845996,0.7622142060637473
1684099788003555000,10.88155517578125,1.5042828651994467,1.7186375635415314,0.603918664073944
1684099788013572900,10.89157275390625,1.533475057414174,1.728396156489849,0.5840332293868065
1684099788023592000,10.901592041015626,1.6414508634865284,1.5567004501789807,0.6009878713190555
1684099788033610000,10.91160986328125,1.7543764009207485,1.239014848960936,0.5820189669549465
1684099788043629000,10.921629150390626,1.7741338253140448,0.9234244664564728,0.37192309510111804
1684099788053647000,10.931647216796875,1.6173019261360166,0.7484639131307601,0.16509879226386545
1684099788063666200,10.941666259765626,1.3819161302030085,0.6911629400238394,0.08285890047252177
1684099788073684000,10.95168408203125,1.105101760816574,0.5501631084889174,-0.007884615769982338
1684099788083703000,10.961703125,0.7650432920098305,0.23871114096343515,-0.2315601001650095
1684099788093720800,10.971720947265625,0.334143691805005,-0.2045648334726691,-0.5399281302005052
1684099788103740000,10.981739990234376,-0.171405198931694,-0.6320405967086553,-0.8747703256636857
1684099788113758200,10.99175830078125,-0.6910837373077869,-0.9327966904357076,-1.1710685631990432
1684099788123776000,11.00177587890625,-1.150854042688012,-1.0878583650708198,-1.3116063301801681
1684099788133795000,11.011795166015625,-1.480387610349059,-1.0280585608854889,-1.2444751601934432
1684099788143812900,11.021812744140625,-1.6916624628543853,-0.7923845956608653,-1.069457615983486
1684099788153832000,11.03183203125,-1.7773136243939398,-0.4556479647532105,-0.9168553171992302
1684099788163850000,11.04185009765625,-1.6520698726564644,-0.1183282732605934,-0.6952426105529069
1684099788173868800,11.051868896484375,-1.3130319790691136,0.15989800875037907,-0.2078781958043575
1684099788183887000,11.06188720703125,-0.9082394645452498,0.38569077756032344,0.3766010237842798
1684099788193906200,11.07190625,-0.6840577841937542,0.5006108498126268,0.9018734366446733
1684099788203924000,11.081924072265625,-0.5977449438750744,0.6128808459475636,1.2693021429359912
1684099788213943000,11.091943115234375,-0.5638607944518328,0.7391809748701751,1.4299994853705167
1684099788223961000,11.101961181640625,-0.5779495255589485,0.8173398809581994,1.3949953920066356
1684099788233979000,11.111978759765625,-0.7543851198732853,0.8482749713174998,1.076914361730218
1684099788243998000,11.121998046875,-1.1138269190639256,0.7178712064683437,0.6408388201922178
1684099788254016000,11.13201611328125,-1.371383630272746,0.5221355761393904,0.21268355025947092
1684099788264035000,11.14203515625,-1.2567840221464632,0.4011281467974186,-0.1294131463766098
1684099788274053000,11.15205322265625,-0.8721084129780531,0.3468028285004198,-0.3693067751228809
1684099788284072000,11.162072021484375,-0.48223640421032904,0.31852848178297277,-0.526843607699871
1684099788294090000,11.172090087890625,-0.16114567072391509,0.23808467962816357,-0.6765209589481354
1684099788304109000,11.182109130859375,0.10096095887422561,0.13462678937166928,-0.6882014598697423
1684099788314126800,11.192126953125,0.3682113811016083,0.0033807284794747827,-0.6982166579276323
1684099788324146000,11.20214599609375,0.6401227808773517,-0.07933189539015292,-0.7351549342244863
1684099788334164000,11.2121640625,0.8494792325407267,-0.06791837484166026,-0.8364531622290611
1684099788344182000,11.22218212890625,-2.491960023596883,0.5341404867097735,-4.666999877390265
1684099788354201000,11.232201171875,-11.820414419209957,4.199800883314013,-18.164079681330918
1684099788364219000,11.242218994140625,5.9050371134907005,3.1956554051965473,-0.08247837672233581
1684099788374238000,11.252238037109375,5.793690954202413,0.9390288628235459,1.6504431482374666
1684099788384256000,11.262256103515625,-1.6560206561088562,0.5184085184402764,-5.356861379426717
1684099788394275000,11.272275146484375,2.3766952295601365,0.3378334862336516,-0.2654512638509273
1684099788404293000,11.282293212890625,0.9568272621035575,-0.8290975387692451,0.5364128155559301
1684099788414312200,11.292312255859375,0.3336217137575149,-0.7873129914849996,-0.2125631387501955
1684099788424330000,11.302330078125,-0.43875615892410275,-0.10435103970393537,0.03356850760281086
1684099788434349000,11.31234912109375,-1.3236474811077117,0.2313281180400401,0.08849632183760404
1684099788444366800,11.322366943359375,-1.6625900976270436,0.3646194575568661,0.46733869480788703
1684099788454385200,11.33238525390625,-1.6257558662265539,0.4566215590257197,0.858574100883305
1684099788464404200,11.342404296875,-0.7987807264387607,0.49629737052768463,0.8156745780944824
1684099788474422000,11.352422119140625,-0.20383388884961604,0.45538894849084316,0.30342180580496786
1684099788484441000,11.362441162109375,0.17413666972219943,0.42043271285668016,0.11002513981759547
1684099788494459000,11.372458984375,0.28341654413044454,0.4288839130008593,-0.059364043116569516
1684099788504478000,11.38247802734375,0.17245675381124018,0.42554983667470514,-0.31849136464297767
1684099788514496000,11.39249609375,0.05109422742128372,0.36210298122391105,-0.41832711887955665
1684099788524514800,11.402514892578125,-0.09597849428653717,0.22695297169573603,-0.3432321304067969
1684099788534533000,11.412533203125,-0.26173896532952784,0.08728780456436798,-0.1820499270647764
1684099788544552200,11.42255224609375,-0.4212660949409008,0.03536545575587079,0.015026011957228183
1684099788554570000,11.432570068359375,-0.5326806432902813,0.08058352115275338,0.12089607792198657
1684099788564589000,11.442589111328125,-0.5215349798977374,0.1454874800766818,0.11683394304960966
1684099788574606800,11.45260693359375,-0.34993338161110876,0.1541963265100494,0.02418269348964095
1684099788584625000,11.462625,-0.09710311440229415,0.11790268652597441,-0.025683307310938833
1684099788594644000,11.47264404296875,0.060034489724040026,0.06944544741162098,-0.08094356837049126
1684099788604662000,11.482662109375,0.10075286908149719,0.031791405794536695,-0.12895853447690606
1684099788614681000,11.49268115234375,0.09329963046610355,0.03752115421872586,-0.14065730170756577
1684099788624699100,11.50269921875,0.020827683973312378,0.09703737395601346,-0.1266885437183082
1684099788634718000,11.512718017578125,-0.05018354231715202,0.15421948818992823,-0.1231139001019299
1684099788644736000,11.522736083984375,-0.08255436456799507,0.2852875439004041,-0.12707783529683947
1684099788654755000,11.532755126953125,-0.017907412612438202,0.3815000113395974,-0.15314838835969566
1684099788664772900,11.54277294921875,0.07720774284303188,0.410159594514966,-0.158636464381963
1684099788674792000,11.5527919921875,0.0844657511472702,0.34579595301281657,-0.14335297053232787
1684099788684810000,11.56281005859375,-0.031743045741319656,0.2553206227198243,-0.06716003075502812
1684099788694828000,11.572828125,-0.20633914966881273,0.16037052163295448,-0.04414769621901214
1684099788704847000,11.58284716796875,-0.409691392481327,0.1291250501502305,0.002390840659290552
1684099788714865000,11.592864990234375,-0.5313146156340837,0.14662385456231422,-0.020454685942456124
1684099788724884000,11.602884033203125,-0.46634150046408174,0.19716697830632327,-0.11775226347092538
1684099788734902000,11.612902099609375,-0.09878244579136371,0.2779898246402852,-0.08698876681886612
1684099788744921000,11.622921142578125,-0.22584932130277155,0.24085728614665566,0.011792035004682839
1684099788754939100,11.632939208984375,-0.6123901398211717,0.26543338113436477,0.104931762201339
1684099788764958000,11.6429580078125,-0.5518436089217662,0.22517631741203367,0.03837583481930196
1684099788774976000,11.65297607421875,-0.31933716781735416,0.2008899260859005,-0.016935060448944567
1684099788784994000,11.662994140625,-0.15247721109986304,0.206325376871787,-0.001700447242334485
1684099788795012900,11.673012939453125,-0.045942251485586165,0.2566395963639021,-0.035974911157414316
1684099788805031200,11.68303125,0.019744564911723137,0.24404999950705095,-0.06037837125826627
1684099788815050200,11.69305029296875,-0.0420978510171175,0.19229243107251823,-0.04593629666883498
1684099788825068000,11.703068115234375,-0.10286299310326576,0.1900182938617654,-0.029213746459409592
1684099788835087000,11.713087158203125,-0.05435936669707298,0.19877835902571678,-0.04440810072086751
1684099788845105000,11.72310498046875,-0.012667758393287657,0.2217262500233948,-0.051095688726007935
1684099788855124000,11.7331240234375,-0.003029576954245567,0.20672084246277808,-0.03946604120880365
1684099788865142000,11.74314208984375,0.005105214184522628,0.2317268715666607,-0.07806143706291914
1684099788875160800,11.753160888671875,0.034247137516736983,0.27333430871833114,-0.10770528203528373
1684099788885179100,11.76317919921875,0.08849018435776233,0.2850783581291325,-0.11792418597172945
1684099788895198200,11.7731982421875,0.05545709880590439,0.27354641709905114,-0.09060385204348713
1684099788905216000,11.783216064453125,-0.033710546422004696,0.24198623537765815,-0.04302797147408127
1684099788915234000,11.793234130859375,-0.15647534082531928,0.2514061709561385,-0.04204407500326633
1684099788925252900,11.8032529296875,-0.21577567105591297,0.2621752195886336,0.0015068974316120147
1684099788935271000,11.81327099609375,-0.29320494769513605,0.2832913651145063,0.0335762159852311
1684099788945290000,11.8232900390625,-0.3837877204179764,0.3294717910038307,0.06345617126841098
1684099788955308000,11.83330810546875,-0.46379766120016575,0.3948487012017518,0.07609430170841515
1684099788965327000,11.8433271484375,-0.5785498295396566,0.43756855657473204,0.10517894189544022
1684099788975345000,11.853344970703125,-0.7216723523169756,0.5139657867524773,0.16692483864724636
1684099788985364000,11.863364013671875,-0.8625573253005743,0.5615604085549711,0.22872253865152595
1684099788995382000,11.873382080078125,-1.002231753450632,0.525542900364846,0.34594095097407696
1684099789005400800,11.88340087890625,-1.1522498809605837,0.4443369547311216,0.44128114735707635
1684099789015419000,11.8934189453125,-1.2043383801162242,0.34335042302422225,0.4758480183474719
1684099789025437200,11.903437255859375,-1.162743802446127,0.27363621427435425,0.4870746380217373
1684099789035456000,11.9134560546875,-1.0349000973433256,0.27529905118634923,0.47472895118966696
1684099789045473000,11.92347314453125,-1.106677631831169,0.2428941074701957,0.7805211393877863
1684099789055491800,11.933491943359375,-0.9401099360585212,0.24596867434363812,0.7821995939940214
1684099789065510100,11.94351025390625,-0.8223866429537534,0.3666852675128728,0.7826283408001065
1684099789075529200,11.953529296875,-0.6379717403233051,0.49505650362111625,0.7535688350543379
1684099789085547000,11.963547119140625,-0.5533773943603039,0.7056748649790883,0.7304431032717228
1684099789095566000,11.973566162109375,-0.5950567277044058,0.9775796158183365,0.8221776763781905
1684099789105583900,11.983583984375,-0.7344359723001718,1.383390586669743,1.077798158827424
1684099789115603000,11.99360302734375,-0.8818506393134593,1.9035569085627793,1.4272005023017524
1684099789125621000,12.00362109375,-1.3120961595237255,2.2904178989462554,1.7403163113862274
1684099789135639800,12.013639892578125,-1.621978685775399,2.466037646833062,1.801860621151328
1684099789145658000,12.023658203125,-1.7382827597320079,2.2766220133058725,1.3102706976622343
1684099789155676200,12.03367626953125,-1.9831208591431377,1.8692989573910832,0.7706424271911382
1684099789165695000,12.043695068359375,-2.2582822006255387,1.295720194262266,0.41458793235123154
1684099789175713000,12.053713134765625,-3.2038387116521596,0.657732525717467,-0.664497928199172
1684099789185732000,12.063732177734375,-4.265528616243601,-0.17320611087381838,-2.405389993646741
1684099789195750000,12.07375,-4.480965849125385,-0.9708151631847023,-3.595453180173039
1684099789205769000,12.08376904296875,-3.911937881168723,-1.5193759510435163,-4.173728284424543
1684099789215787000,12.093787109375,-2.7215613909095526,-1.8381630837626755,-4.478313873311877
1684099789225806000,12.10380615234375,-1.2652858930319546,-2.03696906144768,-4.613500342392921
1684099789235824000,12.11382421875,-0.14421148705780507,-1.9789673927254974,-4.536537514221668
1684099789245843000,12.123843017578125,0.7760410713642835,-1.7485425802007317,-3.952210270324349
1684099789255861000,12.133861083984375,1.5909645388305187,-1.4418829615183173,-2.9337136107712984
1684099789265879000,12.143879150390624,2.323376311826706,-1.0732876956656574,-1.732387271952629
1684099789275897900,12.15389794921875,2.817652697920799,-0.7563092198036611,-0.8911497980564832
1684099789285916200,12.163916259765625,3.0743530845612286,-0.4170518382467329,-0.43693128158450123
1684099789295935000,12.17393505859375,3.136835551959276,-0.03552636367231607,-0.1695586942821741
1684099789305953000,12.183953125,2.985395282691717,0.30842545931115745,-0.005600888746976852
1684099789315972000,12.19397216796875,2.492727500838041,0.4719074640281498,-0.0010474632263183592
1684099789325990000,12.203989990234374,1.6970903331220148,0.3925850671187043,-0.12177578336596488
1684099789336009000,12.214009033203125,0.8172241456240416,0.178332806237787,-0.18226269303262232
1684099789346027000,12.224027099609375,-0.12562836714088915,-0.0024780805513262747,-0.26086685867011544
1684099789356046000,12.234046142578125,-1.017981695768237,-0.12945757004022598,-0.5251350502163171
1684099789366064000,12.244064208984375,-1.6257991208463907,-0.2106757175683975,-0.681141019964218
1684099789376082000,12.25408203125,-1.7708406289875507,-0.23873452183902263,-0.47518940830826756
1684099789386101000,12.26410107421875,-1.5110890380829571,-0.27427228368818757,-0.011409867286682128
1684099789396119000,12.274119140625,-0.992291374194622,-0.3222197375163436,0.5197597869187593
1684099789406137900,12.284137939453124,-0.44186815346479413,-0.4096183272451162,0.9131710757285356
1684099789416156200,12.29415625,-0.02156242798864841,-0.47718642734438177,1.2073773094207048
1684099789426176000,12.304176025390625,0.39820086117386816,-0.18377105176895855,1.228414252230525
1684099789436194000,12.314194091796875,0.4602139574944973,0.07733078470081091,0.925662308511138
1684099789446213000,12.324213134765625,0.43841187553107736,0.27868016325831413,0.47645489819943904
1684099789456231200,12.334231201171875,0.4046171579569578,0.3156181472942233,0.09559037175178527
1684099789466249000,12.3442490234375,0.46225393888950345,0.21046441290527582,-0.1040109940946102
1684099789476268000,12.35426806640625,0.6656558660626412,-0.010885258890688419,-0.12967676574885845
1684099789486285800,12.364285888671875,1.0296130968511104,-0.2835819638252258,-0.127364981675148
1684099789496305000,12.374304931640625,1.4370231003969907,-0.526321337391436,-0.03001519903540611
1684099789506323200,12.3843232421875,1.911927846544981,-0.6050403615802527,0.10673135896921157
1684099789516342000,12.394342041015625,2.3152210624217986,-0.46071343144923443,0.31906828774809837
1684099789526360000,12.404360107421875,2.4744629453510045,-0.21204232974648474,0.5201449868440627
1684099789536379100,12.414379150390625,2.3427304161161184,-0.013692717526853084,0.7050140629827976
1684099789546397000,12.42439697265625,2.06821672488749,0.11398410657644271,0.8696768019169568
1684099789556416000,12.434416015625,1.7467366998225449,0.12939035002291202,0.9830606045126914
1684099789566433800,12.444433837890625,1.4938614244282244,0.023861352580785748,1.1163432857990265
1684099789576452900,12.454452880859375,1.3499042043924332,-0.11145809523016213,1.2634691989988087
1684099789586471200,12.46447119140625,1.2853390855014324,-0.2461103113040328,1.349413790526986
1684099789596489000,12.474489013671874,1.1511720225960016,-0.31042583934813733,1.3791507571429014
1684099789606508000,12.484508056640625,0.8992372429221868,-0.33543022448420523,1.3332961839407682
1684099789616526000,12.494526123046874,0.5230243416726589,-0.4219365415483713,1.3220032210320234
1684099789626545000,12.504544921875,0.13986322872042656,-0.4970917357757687,1.3659411469578742
1684099789636563000,12.51456298828125,-0.11316051523387431,-0.5421110271975398,1.4560551331251859
1684099789646582000,12.52458203125,-0.22225568072497842,-0.4920768302232027,1.5258353563159703
1684099789656600000,12.53460009765625,-0.14715630833804608,-0.3736906892955303,1.5542466272860764
1684099789666619100,12.544619140625,0.02129237887561321,-0.19115794714987278,1.5555910276323557
1684099789676637000,12.554636962890624,0.2015963390558958,-0.005332885460555553,1.5686983464866875
1684099789686656000,12.564656005859375,0.3454711415052414,0.20840835715830325,1.5465718548744916
