time,seconds_elapsed,z,y,x
1684108175842729200,0.015729248046875,-0.07628712086677551,0.14818082908019423,-0.46099217532537873
1684108175852747300,0.025747314453125,-0.10502046339809894,-0.10691329140737652,-0.14265388235226273
1684108175862764300,0.035764404296875,-0.012269114464521407,-0.42403000669628377,0.30230211759265513
1684108175872782300,0.0457822265625,0.18946517175734043,-0.48950581069141624,0.37067747895419595
1684108175882799400,0.05579931640625,0.39759588101804255,-0.3477010925143957,0.22300140279205516
1684108175892816400,0.06581640625,0.5175093776434659,-0.12392974652945994,0.14077983210869133
1684108175902834200,0.075834228515625,0.4796896423369646,-0.02731090851277113,0.13084204666856675
1684108175912851500,0.0858515625,0.34210780255198475,0.03915609847679734,0.24504180528968572
1684108175922869200,0.095869140625,0.24192250422537326,0.035264643996208905,0.37051494533624496
1684108175932886300,0.10588623046875,0.09235270500481128,0.05827785531505942,0.21266670872252433
1684108175942904300,0.115904296875,-0.21972002476751804,0.16888649410903453,0.18189893775414676
1684108175952921300,0.12592138671875,-0.6281254690915345,0.27485139875039455,-0.07948061967846005
1684108175962939100,0.135939208984375,-1.12679921336174,0.28315950062945483,-0.5561239165894687
1684108175972956200,0.1459560546875,-2.3990549454063177,0.4163368218451738,-0.9639908701226114
1684108175982973400,0.155973388671875,-3.7482226522177458,0.47620574574396013,-0.7740170181907713
1684108175992991200,0.1659912109375,-4.076971206980944,0.43334275557324287,-0.6229366682767867
1684108176003008300,0.17600830078125,-3.055654229310155,0.608263269149512,-0.3785609256803989
1684108176013026300,0.1860263671875,-1.2320195832461118,0.8904609390094875,-0.013934746121801435
1684108176023043000,0.19604296875,0.7782014642685652,1.478132817159593,0.4809188918709755
1684108176033061400,0.206061279296875,1.9081214399993418,1.9627301052823662,1.3583246806047855
1684108176043078100,0.216078125,1.860720221877098,1.771810058541596,2.067561621979624
1684108176053095400,0.226095458984375,1.5583347733825443,1.5028120619945227,2.179318407895416
1684108176063113200,0.23611328125,1.5629834759712218,1.8560139438822865,2.669826819758117
1684108176073130500,0.246130615234375,0.04229600393772125,2.4258830388382076,3.0267025678530333
1684108176083148300,0.256148193359375,-0.4732704229444265,2.9925387247055766,2.4090265965834257
1684108176093165000,0.2661650390625,0.21183891612887382,2.589489838978648,1.5015573857583104
1684108176103183400,0.276183349609375,-0.37284371707737446,2.3184809410005807,0.9404038044385612
1684108176113200000,0.2862001953125,-0.6488216356396674,0.7275076343417167,-0.8850534539427608
1684108176123218200,0.29621826171875,-0.19879940181374547,-1.5561121288970112,-1.4907741259373724
1684108176133235000,0.30623486328125,1.6674018818229437,-2.6573040227934714,-1.2067086894441394
1684108176143252200,0.316252197265625,3.444817213025689,-2.5677321806788442,-0.8176220589004457
1684108176153270000,0.32627001953125,3.9609494570970534,-2.1124758455917236,-0.9738950820866972
1684108176163287000,0.336287109375,3.9580525666117667,-1.7780132970958946,-1.6515471639566122
1684108176173305000,0.34630517578125,4.102971909677982,-1.60059482922405,-1.6199242374636231
1684108176183321900,0.35632177734375,3.965777023383975,-1.1606108820706604,-1.4749594478204846
1684108176193340200,0.366340087890625,3.604169570592046,-0.3941822731822729,-1.4596183785647152
1684108176203357000,0.37635693359375,3.0744875245958565,0.1666106581315398,-1.2952122447401284
1684108176213375000,0.386375,2.497188571900129,0.4182151829376817,-1.2806798615187405
1684108176223392000,0.39639208984375,2.0787305201172828,0.7828668257310986,-1.1561363670051097
1684108176233410000,0.40641015625,1.9619331096857786,0.8928551406696438,-0.9125527976997196
1684108176243427000,0.416427001953125,1.6138327887207269,0.703181879119575,-0.9049879154033958
1684108176253443800,0.42644384765625,1.68919168882668,0.9704580203101039,-0.2819232368327677
1684108176263462100,0.436462158203125,1.1206389371663332,0.5273553566142917,0.023266163166612387
1684108176273479000,0.44647900390625,0.3010591683268547,0.08316782029122113,0.1477504748389125
1684108176283497200,0.456497314453125,-1.139777937400341,0.47505292244702574,2.288779191828519
1684108176293514000,0.466513916015625,-2.2295897746264934,0.14040069659799337,3.751289638572931
1684108176303532000,0.476531982421875,-3.6140111656486984,-0.11447919661700724,3.9539536068603396
1684108176313549000,0.486549072265625,-4.989031106597185,0.06738543700873852,3.8224069555863736
1684108176323566800,0.49656689453125,-5.436603024661541,0.9070809421598911,3.38037893538475
1684108176333584100,0.506584228515625,-4.622427160692214,1.780526741221547,2.1661399235010146
1684108176343601000,0.516600830078125,-2.988649900573492,2.2165666269242763,0.6349667132884264
1684108176353619200,0.526619140625,-1.0573188499003647,2.1419734504938126,-0.26627090967074035
1684108176363636000,0.536635986328125,0.48325873299539085,1.4110285351797938,-0.6522481029570102
1684108176373654000,0.546654052734375,1.6652677924036978,0.1822659079030156,-0.9161131205298007
1684108176383671000,0.556671142578125,2.1862778716444966,-1.0327803287103772,-0.8171475732564926
1684108176393688800,0.566688720703125,2.251442709994316,-1.0947221133604645,0.0151766724742949
1684108176403706000,0.5767060546875,2.0671926425367593,-0.3230348532915115,0.9592831308230757
1684108176413724000,0.586723876953125,1.5991361548483372,0.1374704883649945,1.3886005764029918
1684108176423741200,0.5967412109375,0.7323445529788732,0.19342618434280157,1.0076163690984248
1684108176433758000,0.606758056640625,-0.1127431666046381,0.1703445839628577,0.13891864134669302
1684108176443776300,0.6167763671875,-0.5956903494328261,0.007936638218164444,-0.49531654279679055
1684108176453793000,0.62679296875,-0.6018395197123289,-0.2787453374490142,-0.8571665721729397
1684108176463810800,0.636810791015625,-0.05351648613214492,-0.7519000250592828,-1.3142720422580838
1684108176473828000,0.646828125,0.9858628024518489,-0.778263131327927,-0.9460799503788352
1684108176483846000,0.656845947265625,1.6607500227183103,-0.5186477340236306,-0.4697998242244124
1684108176493863200,0.66686328125,1.38446873729527,-0.4871092709437012,-0.12918167570829392
1684108176503881000,0.676880859375,0.7572656437456607,-0.2533396780356765,0.4926695354193449
1684108176513898200,0.686898193359375,0.004441197317838669,-0.262559341801703,0.6798316909313201
1684108176523915000,0.6969150390625,-1.0220739335179327,-0.4664601584076881,0.47817602290362116
1684108176533932800,0.706932861328125,-1.431159176799655,-0.30673224552720785,0.7474079743370413
1684108176543950000,0.7169501953125,-1.2831418677181006,-0.2544081840500235,0.6942255424648522
1684108176553967900,0.7269677734375,-0.6997621338039636,-0.2608031457841396,0.39141485429555173
1684108176563985200,0.736985107421875,0.08086977248191833,-0.23772534479647872,0.04190671235918998
1684108176574003000,0.7470029296875,1.0441934108674527,-0.22053104888945815,-0.1273265493609011
1684108176584020200,0.757020263671875,1.8705097944855689,-0.16251520551145077,-0.19962007054686545
1684108176594038000,0.7670380859375,2.2232255002915857,-0.1354544723674655,-0.4413866535581648
1684108176604055000,0.777054931640625,2.3189362835526466,-0.0994385716125369,-0.7148857609167695
1684108176614073000,0.787072998046875,2.4507640898555514,-0.05327069467753172,-1.0829318684540687
1684108176624089900,0.79708984375,2.4337293684244155,0.04609013552367687,-1.2457767443113028
1684108176634107100,0.807107177734375,2.0734639778912065,0.1570309288814664,-1.133136599689722
1684108176644125000,0.817125,1.5554121639341114,0.1540951676905155,-0.8729296662330627
1684108176654142200,0.82714208984375,1.1943214284926653,0.061114686176180835,-0.44978228759020566
1684108176664160000,0.837159912109375,1.2536305265516041,0.11243278548121452,-0.08962561812847852
1684108176674177000,0.847177001953125,1.8898165525019168,0.19843992085158824,0.022751345512270926
1684108176684195000,0.857195068359375,3.0750615250915287,0.3404366544693708,0.03380114731490612
1684108176694211800,0.8672119140625,4.1926317223370075,0.4252230158731341,0.1303083416506648
1684108176704230100,0.877230224609375,5.00140485047996,0.5387994184315205,0.5323673395574092
1684108176714247000,0.887246826171875,5.470106650334596,0.5922472232416272,0.9736199914723634
1684108176724264000,0.897263916015625,5.351190932574868,0.7326604870602488,1.4194444813475011
1684108176734282000,0.907281982421875,4.296555622670054,1.0892153326377272,1.8202917653769253
1684108176744299000,0.917299072265625,2.1723574828416106,1.540672275441885,2.1067080758452414
1684108176754317000,0.927317138671875,0.10510638811588287,1.8013088324874638,2.0864541001066566
1684108176764334000,0.937333984375,-1.2129589089453219,1.996849670896679,1.686560171279311
1684108176774352100,0.94735205078125,-1.5942606577664613,1.924123749642819,1.5011965896219015
1684108176784369000,0.957368896484375,-1.4644301627606153,1.7934049274951218,1.72833828882277
1684108176794387200,0.96738720703125,-1.9064748418360948,1.6839672321766614,2.1118886933535337
1684108176804404000,0.977404052734375,-2.939182397571206,1.354888276415318,2.3098370312958956
1684108176814422000,0.987422119140625,-4.224585195958614,1.144786559342593,2.224590358904004
1684108176824439000,0.99743896484375,-5.418664632388949,1.190219326936081,1.637096467669308
1684108176834456000,1.0074560546875,-6.106249421665072,1.1809938179511577,1.0803282618269323
1684108176844474000,1.01747412109375,-6.442676255971193,0.9640008800599723,0.5017912917688488
1684108176854491000,1.027490966796875,-6.323197059109806,0.7197004677221178,0.08840981259793043
1684108176864509200,1.03750927734375,-5.672812411937117,0.5576677119653671,-0.21302812591344117
1684108176874526000,1.04752587890625,-4.824237434759736,0.30492373480051754,-0.44941316201686854
1684108176884544300,1.057544189453125,-3.7886002553135154,0.008522329151630401,-0.4054664682626724
1684108176894561000,1.06756103515625,-2.7803701382309196,-0.2984251665614545,-0.17415449763983487
1684108176904578800,1.077578857421875,-2.199735319110751,-0.6617398616626858,0.25188538757413625
1684108176914596000,1.08759619140625,-1.8477783227175473,-0.9449833142485469,0.6143257840588688
1684108176924613000,1.097613037109375,-1.4080629633724688,-1.0625863419745116,0.5734750104933977
1684108176934631200,1.107631103515625,-0.9407605089217423,-0.7409911660972982,0.3255675866395235
1684108176944648000,1.11764794921875,-0.6647013418167829,-0.278120410483703,-0.18559563684761524
1684108176954666200,1.127666259765625,-0.43678748919963833,0.10846950787343085,-0.7432964473649859
1684108176964683000,1.13768310546875,-0.15627134268581866,0.42867629813216623,-0.9906973830014467
1684108176974700800,1.14770068359375,0.0884960295766592,0.6449453056629747,-0.811798028922081
1684108176984718000,1.157718017578125,0.3376321184426546,0.6912370281733572,-0.552446543250978
1684108176994735900,1.16773583984375,0.9145207367718219,0.6312902167327702,-0.540055263711512
1684108177004753200,1.177753173828125,1.9324281982600688,0.613705460203439,-0.8301911792248488
1684108177014771000,1.18777099609375,3.152795922157168,0.7485846169009804,-1.1637535640105605
1684108177024788200,1.197788330078125,4.194389964181185,0.8959010842368006,-1.4953157148897647
1684108177034805000,1.207804931640625,4.836702364057302,0.9935090794213116,-1.854028615283966
1684108177044823000,1.217822998046875,5.254962262919545,1.189860649691522,-2.2893033618330954
1684108177054840000,1.227840087890625,5.553505064511299,1.7167843368902802,-2.7649954589664936
1684108177064857900,1.23785791015625,5.638642431309819,2.2872936294458803,-3.590352642163634
1684108177074875100,1.247875244140625,5.299146857082843,2.9377041417121887,-4.305169137236476
1684108177084893000,1.257892822265625,4.3948365486800665,3.504972698780894,-4.229383828411996
1684108177094910000,1.267909912109375,3.7915877466917034,3.5344033759266136,-4.065092553138733
1684108177104928000,1.277927978515625,4.007235407453775,3.268559021104872,-4.413393365111947
1684108177114945000,1.287945068359375,4.568754022693634,3.3593238723963497,-4.865738488927483
1684108177124963800,1.2979638671875,5.626104436776042,3.5552895120888945,-4.630824986681342
1684108177134980600,1.307980712890625,6.686378629350662,3.805141055747866,-4.681708201700449
1684108177144997600,1.31799755859375,6.957142028135061,4.266794690656662,-5.050275556632876
1684108177155015700,1.328015625,6.139603409734368,4.862361705970764,-5.224184847339988
1684108177165032700,1.33803271484375,4.4315152972579,5.758624316996336,-5.267258265390992
1684108177175050800,1.34805078125,2.1155197433322668,6.411160589244961,-5.151300812914967
1684108177185067800,1.35806787109375,-0.6596113252013921,6.726334792163968,-4.984561267706751
1684108177195085800,1.3680859375,-2.510706809642911,7.550888257762789,-4.87708464332819
1684108177205102600,1.3781025390625,-4.007735173669457,7.8506562172353265,-3.31320158816874
1684108177215120600,1.38812060546875,-5.023268891763687,7.248824296307563,-0.6773954036951064
1684108177225137700,1.3981376953125,-5.319158548498153,6.530401301175355,2.014531311929226
1684108177235154700,1.40815478515625,-4.506423823247849,5.872912959477305,4.407907042655348
1684108177245172700,1.4181728515625,-2.8469176631107924,5.588994895565509,6.585929127129912
1684108177255189800,1.428189697265625,-1.6558943993806838,5.445571928536892,9.01997063024342
1684108177265207800,1.438207763671875,-1.3828167323045433,4.903120417338609,10.276916564953327
1684108177275224600,1.448224609375,-1.7483014649212358,4.794539631110429,10.093851323366165
1684108177285242600,1.45824267578125,-1.2528496053069829,4.201806670178473,8.419711657720804
1684108177295259600,1.468259765625,-0.830061999887228,3.1619045267641543,7.154578909423947
1684108177305277700,1.478277587890625,0.6295650003753602,2.1040280429810285,8.339009058499336
1684108177315294700,1.488294677734375,2.490612700641155,0.9364388463303446,11.540250739395617
1684108177325311700,1.498311767578125,2.7124884421378375,-1.299978143967688,14.059245484912395
1684108177335329500,1.50832958984375,1.185017593574524,-3.121864485059678,14.254971470630169
1684108177345346800,1.518346923828125,-0.8859808709859848,-3.259025176823139,12.659544691693782
1684108177355364600,1.528364501953125,-2.7466999238193033,-2.222040966682136,10.340684395986795
1684108177365381600,1.538381591796875,-4.114172518128156,-0.32318682898283,7.378699214977026
1684108177375399700,1.548399658203125,-3.9829058528393504,1.4123831646591425,5.705753143030405
1684108177385416700,1.558416748046875,-2.7728584474265574,0.13124912963211535,6.187758661094308
1684108177395434500,1.5684345703125,-1.2380417661450802,-1.4509154321491717,9.037192983201146
1684108177405451500,1.578451416015625,1.5546506780423224,-3.3088053990364075,12.333629314529896
1684108177415469600,1.588469482421875,10.851575232273339,-7.234886956369876,14.834751718747615
1684108177425486600,1.598486572265625,8.517994921818374,-6.949231108880043,6.810821586099267
1684108177435503600,1.608503662109375,5.010456756463647,-8.583212367138266,2.8387194513469933
1684108177445521700,1.618521728515625,3.7602111961752174,-9.006323213163018,2.2050117982089517
1684108177455538700,1.62853857421875,-0.7262585110634565,-5.448639499413967,6.6940276827991
1684108177465556700,1.638556640625,-0.890301656794548,-2.345733689585328,11.589880154961348
1684108177475573500,1.648573486328125,0.6416314318746328,-2.8266812230288982,7.448656548300385
1684108177485591600,1.658591552734375,3.407699488508701,-4.474740983261167,2.482739190787077
1684108177495608600,1.668608642578125,4.349133951169252,-3.4321918324694036,1.0368851336807012
1684108177505626600,1.678626708984375,1.66065708373785,-3.4142528556749223,0.950531961351633
1684108177515643600,1.6886435546875,2.325414539656043,-4.487957315447926,-0.4099854069918394
1684108177525661700,1.69866162109375,1.789437777429819,-4.96996166446805,-1.231252690526843
1684108177535678700,1.7086787109375,1.2319161228716373,-4.424973620529473,-2.231734969961643
1684108177545695500,1.718695556640625,-0.7560691274374723,-2.361552313224971,-7.226397944965958
1684108177555713500,1.728713623046875,-2.115562413430214,0.009728782331943511,-8.821469334593415
1684108177565730600,1.73873046875,-2.5771464902341363,0.6149333945631981,-8.178138113063573
1684108177575748600,1.74874853515625,-3.579012332981825,-0.7015186220824718,-6.175847274026275
1684108177585765600,1.758765625,-3.479677514004707,-2.631823252317309,-4.789985621067881
1684108177595783700,1.76878369140625,-0.9298772958576679,-3.9368797224625944,-4.842230772089958
1684108177605800700,1.77880078125,2.3098317705988882,-4.7573003260403866,-4.168652880856395
1684108177615818800,1.78881884765625,2.4571850628137586,-2.670528246025741,-1.8603356064736842
1684108177625835800,1.798835693359375,1.535369492858648,2.746782633666694,-1.0293985773175953
1684108177635852500,1.8088525390625,4.141771888193488,5.7682648365229365,-0.6153893216371535
1684108177645870600,1.81887060546875,6.820282072883844,5.082011588111519,-2.1477193006694315
1684108177655887600,1.8288876953125,3.236201350596547,0.4417719996139407,-3.1831887223333117
1684108177665905700,1.83890576171875,3.1430420053839683,-3.969691274218261,1.841546150329709
1684108177675922700,1.848922607421875,-2.0335382102161645,-1.0860141985088587,9.812909060394764
1684108177685940700,1.858940673828125,-9.537519755375385,0.7711504497785121,8.774655560970306
1684108177695957800,1.868957763671875,-8.87459360653758,1.2207891641795634,1.5992355235695839
1684108177705975600,1.8789755859375,-4.973329679596424,7.487561156234145,-3.4202748924434183
1684108177715992600,1.88899267578125,-4.803746727655827,2.5833710638374088,-5.0267888825833795
1684108177726009600,1.899009521484375,-6.565059942102432,3.983999493294954,-7.315302555343508
1684108177736027600,1.909027587890625,-5.225999787807464,5.496888274276256,-6.619434506368637
1684108177746044700,1.919044677734375,-5.277972551628947,1.182818329964578,-1.2947533950567245
1684108177756062700,1.929062744140625,-2.7736221252754327,-0.37878377465084195,2.096627995857596
1684108177766079700,1.939079833984375,0.5598172181494534,1.3881496177650987,-1.3067039450913667
1684108177776097500,1.94909765625,3.9560418113112448,0.7726983368076383,0.725403355538845
1684108177786114800,1.95911474609375,4.365906514532864,0.9393617480397224,-1.0104349336504936
1684108177796132600,1.969132568359375,4.67232487180531,2.0015935044229027,-1.7872551726937294
1684108177806149600,1.979149658203125,4.227186902889609,2.757711439438164,-0.6292459975540637
1684108177816167700,1.989167724609375,2.251547485543042,3.1549753120228647,0.05191021997928619
1684108177826184700,1.999184814453125,0.6102041740842163,3.5429248282954093,-0.8806383409142494
1684108177836201700,2.00920166015625,-0.3626462943203747,2.871100502730906,-3.9500259120225905
1684108177846219500,2.019219482421875,-0.9185480925917625,1.8105393099084495,-4.964412213647365
1684108177856236800,2.02923681640625,-1.6435720934242009,1.741219689966738,-5.354611554673314
1684108177866254600,2.039254638671875,-2.118661548489332,0.6911455504976213,-6.827620745208859
1684108177876271600,2.049271728515625,-3.634010582104325,0.6402496221274138,-7.268782211709022
1684108177886289700,2.05928955078125,-4.977041978117823,1.4150892087474465,-6.84682813450396
1684108177896306700,2.069306640625,-7.943608057177066,4.492372501541674,-5.384591097873449
1684108177906324700,2.07932470703125,-2.9718413891136644,7.9247274156183,-0.5622399152517319
1684108177916341500,2.089341552734375,1.6070388907968998,1.9466963775873183,0.8775316070705652
1684108177926359600,2.099359619140625,2.9628444281876085,-2.6993039663940666,3.089607352316379
1684108177936376600,2.10937646484375,4.233555268877744,-1.6341291422963142,4.727369882678985
1684108177946393900,2.119393798828125,5.851670849484205,-0.28464878933914006,2.4998177513599393
1684108177956411600,2.12941162109375,2.866207762253284,2.641871768122911,-1.4108902957528828
1684108177966428700,2.1394287109375,1.607547424840927,3.8525627321362492,-0.25931144592165944
1684108177976446700,2.14944677734375,1.0476268924474716,2.2458825916491447,-0.40055940699875353
1684108177986463500,2.15946337890625,2.317941135035455,1.3846058076784014,0.25870529672205445
1684108177996481500,2.1694814453125,6.6824886361747975,1.0557567151501774,-0.23749884256422518
1684108178006498600,2.17949853515625,9.057166680693626,1.1945675122082233,-0.22689386191964148
1684108178016516600,2.1895166015625,9.024064037036895,2.248716207639873,2.1538193711102007
1684108178026533600,2.19953369140625,3.4130259442284703,1.9250448100104927,6.043018181726336
1684108178036551700,2.2095517578125,-3.1089936053097245,-1.4309820666670798,6.77077306882739
1684108178046568700,2.219568603515625,-2.766001421138644,-2.7079598587974902,7.4636559645116325
1684108178056585500,2.22958544921875,0.554511074565351,-1.3552487802907824,8.21100636344254
1684108178066603800,2.239603759765625,2.994800239896774,1.4042214855134487,8.42682353555262
1684108178076620500,2.24962060546875,1.1971122282549738,1.8162179400667546,7.415650935277342
1684108178086638600,2.259638671875,-3.00187704641521,1.2647884649038315,8.682731310510635
1684108178096655600,2.269655517578125,-5.944155071914196,-0.6695329997569323,7.306511930644512
1684108178106673700,2.279673583984375,-7.067828262209892,-1.4127896996334195,5.330656678590178
1684108178116690700,2.289690673828125,-7.863315792322158,-0.6554214722961187,3.6704333100944755
1684108178126708500,2.29970849609375,-6.912920024570822,0.40943098797947164,3.3652363113105297
1684108178136725800,2.309725830078125,-1.5992825775817037,1.21138683732301,4.70013350070715
1684108178146743600,2.31974365234375,-0.7292141459986567,1.31683400170058,5.527068308484554
1684108178156760600,2.329760498046875,-0.9805521288231015,1.0018626278772949,5.157545260262489
1684108178166777600,2.339777587890625,1.1235152232550083,0.5861491986274718,4.129368333694338
1684108178176795400,2.34979541015625,4.569751217037439,0.5677616012826562,2.107156988656521
1684108178186812700,2.359812744140625,6.90915745716691,0.49804976715296506,0.3726666069447994
1684108178196830500,2.36983056640625,7.6047642248570915,1.3263824590295552,-1.3411580033570527
1684108178206847700,2.37984765625,7.7223548314929005,2.139635362935066,-3.7005759349018335
1684108178216865500,2.389865478515625,8.159687095093727,3.55983972273916,-8.120418914544581
1684108178226882600,2.399882568359375,9.211617237693071,5.167438293245435,-10.545450597250461
1684108178236900600,2.409900634765625,8.967367751824856,5.1386032439053055,-10.702623857212066
1684108178246917400,2.41991748046875,5.349651301917433,4.393773595623672,-10.734269872319699
1684108178256935700,2.429935791015625,3.1345050631850957,3.539412728521228,-8.032965672019124
1684108178266952400,2.439952392578125,3.7633810583829876,2.2096520252302287,-5.168558821707964
1684108178276969700,2.4499697265625,2.6247581362366676,1.0606859882459043,-6.6833303476959465
1684108178286987500,2.459987548828125,1.1659709477990865,1.9215387015856802,-7.386865570297837
1684108178297004500,2.470004638671875,1.3081285710670054,3.8291821488097306,-4.372064160379767
1684108178307022600,2.480022705078125,0.6573406037904321,2.3501246180206534,-2.529819506391883
1684108178317039600,2.49003955078125,0.2123850057043135,1.1915090014204381,0.2226969947516918
1684108178327057700,2.5000576171875,0.4525327553421259,1.3826619801342486,2.3034470379978416
1684108178337074400,2.510074462890625,1.2783162011273204,1.3589789067298172,3.7215918349236246
1684108178347092700,2.5200927734375,2.0406343059569596,1.6807875792272389,5.205229971501231
1684108178357109500,2.530109619140625,1.623422454842925,2.0042720759823918,6.707876759931445
1684108178367127600,2.54012744140625,-0.3228445914164185,1.8128166071906684,8.575132521057128
1684108178377144600,2.55014453125,-4.526069896221161,1.3154326104700564,8.971365297028422
1684108178387161600,2.56016162109375,-6.375054087597132,0.5308878415893763,9.320580301237106
1684108178397179600,2.5701796875,-7.040860175785422,1.6930439803406596,6.932911842241883
1684108178407196400,2.580196533203125,-7.291133159726858,2.772709978866577,4.137694263491034
1684108178417214700,2.590214599609375,-7.270083357435465,2.0789584836542607,2.971325256285071
1684108178427231500,2.6002314453125,-6.980134781187773,1.9023324813343583,1.3490847047030925
1684108178437249500,2.61024951171875,-6.155560857322811,1.9893726130142806,-0.5597007521629334
1684108178447266600,2.6202666015625,-5.76161999168098,1.2743395525813102,-1.6304729578763246
1684108178457284400,2.630284423828125,-5.12805788449347,0.6077238285105675,-2.286196627989411
1684108178467301600,2.640301513671875,-4.4027316858440635,0.7743703616730868,-4.071794096603989
1684108178477319400,2.6503193359375,-3.596847264879942,0.439873582114093,-6.764220578444004
1684108178487336700,2.660336669921875,-2.1643378425151107,-0.7242386956736445,-9.568318213742971
1684108178497353500,2.670353515625,-0.5690232917815446,-1.3121060963958502,-11.815768639230727
1684108178507371800,2.680371826171875,0.825823120208457,-1.3222738546669481,-12.023014382350445
1684108178517388500,2.690388427734375,2.2140356471419333,-1.4087623438134789,-8.502961018815636
1684108178527406300,2.70040625,3.2551749311357736,-1.6144922755427658,-3.249142080712318
1684108178537423600,2.710423583984375,3.8222920970350502,-1.6724911677859722,0.387826182153821
1684108178547441400,2.72044140625,3.771413558191061,-1.0068717612762004,2.780123469993472
1684108178557458700,2.730458740234375,3.692985918164253,-0.28234201023411004,3.9745898599147793
1684108178567476500,2.7404765625,3.829982067015767,-0.2128035233773291,3.150941818723082
1684108178577493800,2.75049365234375,3.7035534894078967,-1.4350694821111858,-1.8548849398523568
1684108178587511600,2.760511474609375,3.1825293816417455,-3.0920313645929096,-8.77541193229556
1684108178597528600,2.770528564453125,3.930179055780172,-3.693523093780875,-10.710818854105472
1684108178607546600,2.780546630859375,4.587058325669169,-1.7294718228973447,-8.989007921224832
1684108178617563400,2.7905634765625,2.1015379797309635,1.8209885154694319,-6.816603092110157
1684108178627580700,2.80058056640625,-0.10587386535704135,4.153398028579354,-5.112496742746234
1684108178637598500,2.810598388671875,-0.47125557599067686,5.384259089440107,-4.853751698535681
1684108178647615700,2.82061572265625,-1.148312979903072,6.00821048771739,-5.255299532049894
1684108178657633500,2.830633544921875,0.4260160659469664,7.461261762851477,-3.5650896060913797
1684108178667650600,2.840650634765625,3.4624089838176966,7.666979565751552,-1.1054454596877097
1684108178677668600,2.850668701171875,2.4629776747405527,5.244152699613571,2.3162656030386684
1684108178687685400,2.860685302734375,1.9802865125000475,2.720433848184347,8.0380282161057
1684108178697703700,2.87070361328125,2.9232781414747238,-1.630607982432842,11.764075861394405
1684108178707720400,2.880720458984375,3.098640553599596,-5.565750213578343,14.010772253644465
1684108178717738800,2.89073876953125,0.9394120169222354,-7.11986649248302,13.940442579877375
1684108178727755500,2.900755615234375,-1.07359500804916,-6.709062170323729,10.406969178277253
1684108178737773600,2.910773681640625,-1.1654165287867189,-4.0316123083412645,6.281785436791181
1684108178747790600,2.92079052734375,-0.3286369110822677,-1.3999398626714945,2.5660370671987534
1684108178757807600,2.9308076171875,0.5326454258464276,0.4153998332560062,-1.442893453735113
1684108178767825700,2.94082568359375,2.723406726515293,2.140387058085203,-2.728565132191777
1684108178777842400,2.950842529296875,3.2615164091169833,3.2397067283689975,-3.0886171722352502
1684108178787860700,2.96086083984375,2.191253029708564,4.3521296258538955,-0.9131868578195571
1684108178797877500,2.97087744140625,-0.4325267630152404,4.463553526553511,0.9981260716974735
1684108178807895600,2.9808955078125,-1.4412861646689474,4.17211149687767,2.2042121722638606
1684108178817912600,2.99091259765625,-3.2660464537620544,3.2594068696171044,1.1928273905426263
1684108178827930400,3.000930419921875,-6.979172658157348,3.2602158479124306,0.8574234695434569
1684108178837947600,3.01094775390625,-9.398522788095473,2.6127561482757327,4.074536673310399
1684108178847965400,3.02096533203125,-10.424769038861989,0.37441725000441073,4.822473932218552
1684108178857982700,3.030982666015625,-9.585411971884966,-3.2203988013088702,2.381554360029101
1684108178867999500,3.04099951171875,-8.378210019031167,-1.5332061773449182,4.336100866594911
1684108178878017500,3.051017578125,-8.723747211509943,1.116064468857646,5.5001937455624335
1684108178888034600,3.06103466796875,-4.496959829331934,-4.354051533827185,2.216169736561179
1684108178898052400,3.07105224609375,-1.8369687594115733,-2.5590204664349554,5.192575657111406
1684108178908069600,3.081069580078125,0.6488742426097392,0.5872311486452818,6.332487450024486
1684108178918087400,3.09108740234375,5.176288539177179,4.195457301151753,3.6316368387103077
1684108178928104700,3.101104736328125,10.820733519285916,6.147005210423469,-0.9305214389801025
1684108178938122500,3.11112255859375,10.015166493707895,6.824405874815583,-3.6435569936066865
1684108178948139800,3.121139892578125,6.26123540071547,6.456873123627901,-2.660854116490483
1684108178958157600,3.131157470703125,3.471936106097698,4.440856541576982,0.03502922780513763
1684108178968174300,3.14117431640625,-0.11142916139662265,2.799737686523795,2.7190134599924085
1684108178978192600,3.151192626953125,-1.4922124881774186,1.6711749706208705,4.199903759166598
1684108178988209400,3.16120947265625,-2.290378297588229,0.5606564454525709,4.3167169516891235
1684108178998226700,3.171226806640625,-2.635777542901039,-0.060787938439846034,4.281723964241147
1684108179008244500,3.181244384765625,-2.0420354049265383,0.48532092622220513,4.074008850044012
1684108179018261800,3.19126171875,-0.3097697135269642,1.081884551358223,2.612311911639571
1684108179028279600,3.201279541015625,2.0097294646054507,0.9872405205458402,-0.9581769231468439
1684108179038296600,3.211296630859375,3.9145962867230173,0.3906429931402206,-5.044282453697919
1684108179048314600,3.221314697265625,6.313985578650236,0.259532395195961,-8.13463331785798
1684108179058331400,3.231331298828125,8.685940335685014,-0.021971008789539337,-10.165022708654403
1684108179068349700,3.241349609375,9.813104290705919,-0.23263737400770185,-7.468045723903178
1684108179078366500,3.251366455078125,9.87755951948166,-0.08807458929419518,-2.3004338276565073
1684108179088384500,3.261384521484375,10.432577082264423,0.15702420687973498,0.5596598356306552
1684108179098401500,3.271401611328125,9.09833923355937,0.6006161153972148,-0.23398294339776038
1684108179108419600,3.281419677734375,5.156328285688161,1.9341803026244042,-2.135858767005801
1684108179118436600,3.2914365234375,-0.3300876944124698,3.3057544870331883,-3.457181604558229
1684108179128453600,3.30145361328125,-3.3142215788662432,3.350324573382735,-5.317502013462781
1684108179138471700,3.3114716796875,-4.7525300428986545,2.774534271684289,-5.8287920781999825
1684108179148488700,3.32148876953125,-5.844751279354095,1.6780615152642129,-5.088231485539675
1684108179158506800,3.3315068359375,-6.398647729152441,0.5212567474782467,-3.3201556450903413
1684108179168523500,3.3415234375,-7.914090870791673,-1.523074074909091,-3.553905364254117
1684108179178541600,3.35154150390625,-9.346540087401866,-3.6183304901525375,-4.095485353314876
1684108179188558600,3.36155859375,-5.947063652837276,-2.8747014498323202,-3.3101422005981207
1684108179198576600,3.37157666015625,-2.278839250963926,-0.7199544424831866,-3.1941274649769067
1684108179208593700,3.38159375,0.9510369882643223,-0.6729167969763279,-3.9603742875576016
1684108179218611700,3.39161181640625,3.114173638296127,-0.7417196995675563,-2.4148346983402966
1684108179228628700,3.401628662109375,3.80278484801054,0.48240942268967624,-1.336435066488385
1684108179238645500,3.4116455078125,3.396553825116157,2.3704361691653726,-1.507452727407217
1684108179248663600,3.42166357421875,1.9976865601122378,4.79528489651978,-1.328771984514594
1684108179258680600,3.4316806640625,-0.6464543219864368,6.655957772123814,-1.1738842051416636
1684108179268698600,3.44169873046875,-4.550300666636228,7.703992076328396,-0.7906815911352634
1684108179278715600,3.451715576171875,-7.0491726615786545,7.3381585302740335,1.619032110929489
1684108179288733700,3.461733642578125,-3.003549363541603,5.51646332783997,5.52123770263493
1684108179298750700,3.471750732421875,-1.0542191303193569,2.837450454324484,8.289341064488887
1684108179308768800,3.481768798828125,-7.358572957271337,-2.0391940440207716,7.478989142721891
1684108179318785800,3.491785888671875,-10.513324105149508,-5.104425664493442,7.679734417906403
1684108179328803600,3.501803466796875,-8.741455302157998,-3.6327281410783527,9.669172789633274
1684108179338820600,3.511820556640625,-5.853167225521802,-1.4428180504113435,9.030013885352014
1684108179348838700,3.521838623046875,-1.8312382529355584,1.833548721835017,9.846406840848923
1684108179358855700,3.531855712890625,0.7516063028097152,1.8977064289689063,9.518346268349886
1684108179368872700,3.541872802734375,1.7837071248233318,0.7288263157248497,5.405433979415894
1684108179378890800,3.551890869140625,3.550602231055498,1.5989233888804912,2.968274344281852
1684108179388907800,3.56190771484375,5.510303051644564,3.410343865537643,3.1326240717440843
1684108179398925600,3.571925537109375,5.994709201109409,4.627448203724622,3.983315018162131
1684108179408942600,3.581942626953125,5.602027395617961,4.685294243493676,4.4573476576507085
1684108179418960600,3.591960693359375,5.364301174038649,3.8183582647174594,4.089391712614893
1684108179428977700,3.601977783203125,3.078119159096479,2.371817394390702,2.22262110465765
1684108179438995700,3.61199560546875,0.3253928511271253,-0.07496551687419414,-1.680092436569929
1684108179449012700,3.6220126953125,0.8047861043334007,-1.403859081941843,-3.6477047609359023
1684108179459029800,3.63202978515625,1.1369418371915816,-1.80519531853199,-4.709845916426182
1684108179469047600,3.642047607421875,1.6109540184140205,-1.0776122808665036,-5.178223306632042
1684108179479064600,3.652064697265625,2.0440064127385615,-0.3174509156793356,-6.0457455608636135
1684108179489082600,3.66208251953125,2.137567324489355,0.08551730602681637,-6.774884011277556
1684108179499099600,3.672099609375,2.847735701495409,1.4975462504208088,-6.047196344193816
1684108179509117700,3.68211767578125,4.265333385932445,5.719755949419737,-3.731543320095539
1684108179519134700,3.692134765625,4.909382400342822,11.525870331865548,-0.6511158840566873
1684108179529152500,3.702152587890625,4.706083349022269,16.987793675744534,2.4252830271184442
1684108179539169500,3.71216943359375,2.417933833399415,16.742119125509262,1.5937451094597577
1684108179549187600,3.7221875,-1.7667998291641474,13.112272092825174,-3.259613205844164
1684108179559204600,3.73220458984375,-7.757023409292102,9.150226072663068,-6.663121672403812
1684108179569221600,3.7422216796875,-6.054444415625929,1.7335259205937386,-8.699261589550972
1684108179579239700,3.75223974609375,-5.354206481003761,-2.7146330529510974,-9.327292950618267
1684108179589256700,3.762256591796875,-4.235562517046928,-5.25683682461977,-8.636622470286488
1684108179599274800,3.772274658203125,-2.8225357937872406,-6.523284162646532,-7.891337187191843
1684108179609291500,3.78229150390625,-1.6656366257160902,-6.684327542039751,-7.3277253990650175
1684108179619309600,3.7923095703125,-0.7105015544831752,-6.638050944033265,-7.229034723210335
1684108179629326600,3.80232666015625,-0.40737551675438877,-7.066780214461684,-7.073010633283853
1684108179639344600,3.8123447265625,-0.4791477905452251,-7.859597064059972,-6.425975296539068
1684108179649361700,3.822361572265625,-0.5141232058038935,-8.923573618283868,-5.089202376398444
1684108179659379700,3.832379638671875,-0.4148912626793608,-8.740787193638086,-3.4374007992893456
1684108179669396700,3.842396728515625,-0.4175087882339954,-8.393913199597597,-0.5590326436430215
1684108179679413500,3.85241357421875,-1.1956582300543785,-9.086921182966233,2.554867438408732
1684108179689431600,3.862431640625,-1.2222376094222067,-8.346358252218366,5.362397970765829
1684108179699448600,3.872448486328125,-1.3028770802795886,-6.958741864547133,7.646727051317692
1684108179709466600,3.882466552734375,-1.7502976071745155,-5.950962413841486,9.3426559394449
1684108179719483600,3.892483642578125,-1.0080623593002558,-4.125882245144248,11.00579198051691
1684108179729501700,3.902501708984375,5.643997236341238,-0.7769751373440027,13.030388759386538
1684108179739518700,3.912518798828125,11.546002434790134,3.1739579526513815,13.460031053006649
1684108179749536800,3.922536865234375,4.280511665841937,3.2778818529844282,9.677622638070583
1684108179759553800,3.9325537109375,-0.12537468464076518,2.4283096814632414,7.1379761496692895
1684108179769571600,3.942571533203125,-2.1829870134055613,2.1450825224250556,5.090652575206756
1684108179779588600,3.952588623046875,-2.5926632083177563,2.552210201898217,2.521741413876414
1684108179789605600,3.962605712890625,-1.3812427609860896,4.396261613047122,0.1612847869336605
1684108179799623700,3.972623779296875,-1.5625813249111176,5.709959362548589,-0.5544985073447227
1684108179809640700,3.982640625,-2.367342879325151,3.974894395819306,-1.096688737258315
1684108179819658800,3.99265869140625,-0.474995493171364,-6.6333063798546785,-4.391391961184143
1684108179829675800,4.00267578125,0.4703729479372501,-6.49089229760766,-2.4772037684917447
1684108179839693600,4.012693603515625,-1.0582302656568585,-2.0093758288621903,-0.6603969226211309
1684108179849710600,4.022710693359375,-1.5796167769946157,-0.6506050119251012,-1.0963818632662297
1684108179859728600,4.032728759765625,-1.695263263825327,0.2165630220413208,-0.756989164891839
1684108179869745700,4.04274560546875,-2.4121640178263184,0.23237492367923257,-0.10021978511810302
1684108179879763700,4.052763671875,-3.1668659485638138,1.8908511562466621,0.9227823691606521
1684108179889780700,4.06278076171875,-3.365647814720869,2.926371431314945,1.8808523248016833
1684108179899797800,4.0727978515625,-3.1618741316258907,2.4853917511224743,2.4155618435710666
1684108179909815600,4.082815673828125,-2.4606617990136144,2.6286393615841863,2.6063088718324896
1684108179919832800,4.092832763671875,-1.9332325003802775,1.2487024224996566,0.6063596274852753
1684108179929850600,4.1028505859375,-1.410978704688698,0.18123159641921519,-1.6976766085773705
1684108179939867600,4.11286767578125,-1.0786720190525054,-0.8055424756586551,-2.6564275322198867
1684108179949885700,4.1228857421875,-0.9934043038725853,-1.4468822311103342,-2.1739152336776257
1684108179959902700,4.13290283203125,-0.791551359707117,-1.0383265646606683,-1.1185106929659843
1684108179969920500,4.14292041015625,-0.5120703649273142,1.2655582802325487,-0.22658698792755602
1684108179979937500,4.1529375,-0.023815759873390196,4.40717814385891,0.39904257269501686
1684108179989955600,4.16295556640625,0.909505538958311,6.600220687332749,-0.18893910205662248
1684108179999972600,4.17297265625,2.039192290455103,6.429057480463385,-1.9097195228457449
1684108180009989600,4.18298974609375,2.5976842513501643,1.8039041096776722,-4.887592008817196
1684108180020007700,4.193007568359375,2.2934312554180623,-16.34780065872669,-13.743833966106175
1684108180030024700,4.203024658203125,2.451225277626514,-14.356750760149955,-10.763573123693465
1684108180040042800,4.213042724609375,2.557160517781973,-2.835627915072441,-2.1218729117512702
1684108180050059500,4.2230595703125,2.1279005014777184,7.298278939828276,5.423239685219526
1684108180060077600,4.23307763671875,0.3581997632402926,6.145056998965144,4.269380615496635
1684108180070094600,4.243094482421875,-0.9726513656359166,1.9122645311534403,0.7610223659306764
1684108180080112600,4.253112548828125,-0.636207653260231,1.447509423097968,0.8694961846530437
1684108180090129700,4.263129638671875,-0.48978261833880093,3.6665836489289996,3.2747569989621637
1684108180100147700,4.273147705078125,-1.0048808066546917,3.4035020368188618,4.376387284275889
1684108180110164700,4.283164794921875,-1.9987737708270548,2.2020921113699674,4.907347095122933
1684108180120181500,4.293181396484375,-2.7424901971697806,2.0861422576785085,5.136025502371788
1684108180130199300,4.30319921875,-2.8652690200984474,2.8273125066697595,4.299599228149652
1684108180140216300,4.31321630859375,-1.8907687386602163,4.703362984147668,2.37275379845798
1684108180150234000,4.323234130859375,-0.7920441116601228,5.915380228328704,0.16282324854731559
1684108180160251400,4.33325146484375,-0.008663783448934554,5.27341678802073,-2.2009563853383063
1684108180170269200,4.343269287109375,0.6627203971326351,4.3841994193315506,-4.105210043993592
1684108180180286200,4.3532861328125,1.082484855338931,4.1322880205333234,-4.455456144815683
1684108180190304300,4.36330419921875,0.5490162765413522,5.109755335083603,-2.8011913924634455
1684108180200321300,4.3733212890625,-0.5659240836571902,6.619547903615236,-0.41495442757606504
1684108180210339300,4.38333935546875,-2.1463426054887473,9.69376128744483,4.046782404944301
1684108180220356400,4.3933564453125,-1.5775949157781899,9.985350032114981,6.998785705643892
1684108180230374400,4.40337451171875,1.5634790044032036,5.446352849781513,3.514581069603562
1684108180240391200,4.41339111328125,1.5390947969920932,1.302386081892252,-0.22604688970148562
1684108180250408200,4.423408203125,2.3650918855279683,-2.709678060892224,-3.0871038450628516
1684108180260426200,4.43342626953125,3.120684043103456,-5.132722953695058,-4.4560424202710385
1684108180270443300,4.443443359375,4.6299628168940545,-6.065850775781273,-4.924748896300793
1684108180280461300,4.45346142578125,5.647985429194569,-5.550584793150424,-5.055470202666521
1684108180290478300,4.463478271484375,6.705699415892362,-4.984069684797525,-5.399599281913042
1684108180300496400,4.473496337890625,9.015423049941658,-5.769816742140055,-6.248593361285328
1684108180310513200,4.48351318359375,7.292762806755304,-5.092311448329687,-6.414316422927379
1684108180320531500,4.493531494140625,5.922037932652235,-4.308253074726462,-6.351868442320823
1684108180330548200,4.50354833984375,4.485334565728903,-3.9801340500384566,-5.972555236968398
1684108180340565200,4.513565185546875,3.144358933201432,-3.1068373040586708,-5.415368513453006
1684108180350583300,4.523583251953125,2.1750796012818814,-1.11083475151062,-3.268486248129606
1684108180360600300,4.533600341796875,0.8773147494494915,0.969694926983118,-0.18642974958419797
1684108180370618400,4.543618408203125,-0.45511225044131276,2.9017747501969335,2.252315985697508
1684108180380635100,4.55363525390625,-1.746810934102535,4.520454978948831,3.5258126577138897
1684108180390653400,4.5636533203125,-2.852642178237438,5.341062921792268,3.6928128996849057
1684108180400670200,4.573670166015625,-3.6388837410986423,5.350785858905315,3.2195775480538606
1684108180410688300,4.583688232421875,-4.779453705659509,4.794272504606843,3.015069705465436
1684108180420705300,4.593705322265625,-5.763512089037895,3.778655199882388,3.5488439892113206
1684108180430723000,4.60372314453125,-5.907151329165697,2.616046421992779,3.915060397103429
1684108180440740400,4.613740234375,-5.0066778224468225,1.377836751934886,3.2985318423032757
1684108180450757400,4.62375732421875,-3.8355987378537653,0.5919762973457574,1.7967659283608197
1684108180460775400,4.633775390625,-2.6264754615485666,0.9231576322138308,0.32777298772931096
1684108180470792200,4.643792236328125,-1.8329051632344722,1.7736311364889144,-0.22833880003094673
1684108180480810200,4.653810302734375,-1.6980676537215709,2.3262141656011344,-0.0008557400465011596
1684108180490827300,4.6638271484375,-1.8993454283475875,2.120992621785402,-0.08702712606787681
1684108180500845300,4.67384521484375,-1.9235995796382426,1.126526826161146,-0.9740782566338777
1684108180510862300,4.6838623046875,-0.9935743997424841,-0.4981032509058714,-1.9800100336462259
1684108180520880000,4.693880126953125,0.38259938741624355,-1.564490373402834,-2.8039181870788332
1684108180530897400,4.7038974609375,1.432923263862729,-2.017733322840929,-3.2512919522225854
1684108180540915200,4.713915283203125,1.9455150588482617,-2.0172966849893332,-2.8463860404521224
1684108180550932200,4.72393212890625,1.960658267444372,-1.363254099830985,-1.592829163658619
1684108180560950300,4.7339501953125,1.757350448295474,-0.4913216279417276,0.0046603930264711374
1684108180570967300,4.74396728515625,1.3907634535253046,0.13949790253937244,1.1379682576298713
1684108180580984300,4.753984375,0.8724035965323448,0.4718249003112316,1.6269605658411979
1684108180591002000,4.764002197265625,0.2948655743837356,0.5232523052096366,1.687045324447751
1684108180601019400,4.774019287109375,-0.21811901931166647,0.4703121576607227,1.5577619419306517
1684108180611037200,4.784037109375,-0.6754068602263927,0.44524727450907226,1.233158816409111
1684108180621054200,4.79405419921875,-0.8341524840712546,0.29477380444705487,0.9029904579758643
1684108180631072300,4.804072265625,-0.8777765217423439,0.215738261654973,0.5933160215169191
1684108180641089300,4.81408935546875,-0.7549684727191924,0.1064379289805889,0.38615503407120705
1684108180651107300,4.824107421875,-0.47030046722292895,0.23936755904555318,0.46765842828154564
1684108180661124400,4.834124267578125,-0.0908803034978453,0.5955868890583514,0.6053004738211631
1684108180671142400,4.844142333984375,0.24252982246875762,0.6255307764232159,0.5529109458923339
1684108180681159200,4.8541591796875,0.5270259785294532,0.6053787997543811,0.6503232723742723
1684108180691176200,4.86417626953125,0.8212111694335937,0.7015572005271912,0.7660176899999379
1684108180701194200,4.8741943359375,1.0256512074828148,1.0472463686972855,1.2391297075122594
1684108180711211300,4.884211181640625,1.099318501240015,1.2432698760569094,1.9083552487552164
1684108180721229300,4.894229248046875,0.9889911636054515,1.0833581310421228,2.4839316154420374
1684108180731246300,4.904246337890625,0.7751274636507034,0.6499386569708585,2.610730195406079
1684108180741264400,4.914264404296875,0.43984220059514045,0.2861696422308683,2.504509708568454
1684108180751281200,4.92428125,0.117709849101305,-0.1864116294056177,1.9279191964030264
1684108180761299500,4.934299560546875,-0.07146247718930245,-0.34214170482158657,1.5281833807468412
1684108180771316200,4.944316162109375,-0.0031681086421012877,-0.15002455725073813,1.383269298377633
1684108180781334300,4.954334228515625,-0.07036478161308914,0.2665291222155094,1.516065072929859
1684108180791351300,4.964351318359375,-0.16534841964337973,0.7978571818530559,1.8424007213324307
1684108180801368300,4.974368408203125,-0.221603975350596,1.4074784414827823,2.3099755629837513
1684108180811386400,4.984386474609375,-0.21134086694624274,1.987439891386032,2.887094482937455
1684108180821403400,4.9944033203125,-0.10100538253784179,2.229488067817688,3.183828189280629
1684108180831421400,5.00442138671875,0.10533201356530189,2.1599650342583656,2.969999560639262
1684108180841438200,5.014438232421875,0.37249125037789343,1.7757441831201315,2.631025379937887
1684108180851456300,5.024456298828125,0.6150608203351497,0.8247188852936029,2.198821126875281
1684108180861473300,5.034473388671875,0.665023340312764,-0.3556576044768095,1.272122461053729
1684108180871491000,5.044490966796875,0.6588461860477924,-1.463466286164522,0.33569852003157136
1684108180881508400,5.05450830078125,0.8648410523235798,-2.5782722793936728,-0.5111661460965872
1684108180891526100,5.064526123046875,0.880051480937004,-3.347674935656786,-1.1706956382334233
1684108180901543400,5.07454345703125,0.7196914076328277,-3.9503152503579853,-1.6081623418688773
1684108180911560200,5.084560302734375,0.6330103185236453,-4.486594210401178,-1.9950281545579431
1684108180921578200,5.094578125,0.5427496904272586,-5.22768613345921,-2.2899498430430887
1684108180931595300,5.10459521484375,0.35006427798178047,-5.651816385659576,-2.2545751628011463
1684108180941613300,5.11461328125,0.018403087174892425,-5.744184872755408,-2.1473732637107372
1684108180951630300,5.12463037109375,-0.1989816995780915,-5.395175035730004,-2.060904356047511
1684108180961648000,5.134648193359375,-0.27798918531946837,-4.541821007582545,-1.9167478140473364
1684108180971665400,5.14466552734375,-0.3228349468052387,-3.696325876241922,-2.0245453409433365
1684108180981683200,5.15468310546875,-0.3365348977904767,-2.8423335501909253,-2.246333988678455
1684108180991700200,5.1647001953125,-0.4613888830253854,-2.3250047898113726,-2.3701602748334407
1684108181001718300,5.17471826171875,-0.5180803824644535,-2.039485135921836,-2.5212778880178925
1684108181011735300,5.1847353515625,-0.5651449890434742,-1.8856950886577366,-2.5654057835578916
1684108181021752300,5.19475244140625,-0.7009796929001808,-1.7750719829469919,-2.1975258263677357
1684108181031770000,5.20477001953125,-0.6827893716931343,-1.1868296114325523,-1.3650526736855506
1684108181041787400,5.214787353515625,-0.5523263509374111,-0.767645583462715,-0.8705915786743164
1684108181051805200,5.22480517578125,-0.4678384610235691,-0.520237925824523,-0.8960124356567859
1684108181061822200,5.234822265625,-0.19195457742027938,-0.2858902407675981,-0.9558137011468409
1684108181071840300,5.24484033203125,0.23338446604795754,0.19127309796214104,-0.9503466679126024
1684108181081857300,5.254857177734375,0.6523709256190806,0.8460743925333023,-0.7474749020934105
1684108181091875300,5.264875244140625,0.8757950656015425,1.592338165271282,-0.5705249285161494
1684108181101892400,5.274892333984375,0.8730582610487937,2.1372546052783727,-0.6783996123015881
1684108181111910400,5.284910400390625,0.17519757695198057,2.316509348666668,-0.7850789488226175
1684108181121927200,5.29492724609375,-0.6497557016193867,2.4656769968271255,-0.2746522229164839
1684108181131945500,5.304945556640625,-1.5105015935838222,2.7259552419543263,1.9026888935565947
1684108181141962200,5.314962158203125,-2.119304522567987,2.4503467412263156,3.989809640878439
1684108181151979500,5.3249794921875,-2.248356434416771,2.089319134148955,3.9640053375363347
1684108181161997300,5.334997314453125,-1.881001962405443,1.4546055188387632,2.48696703761518
1684108181172014600,5.3450146484375,-1.0006944608807564,1.1983049451708794,1.048627593922615
1684108181182032400,5.355032470703125,0.9975929877340793,1.7171189756721257,0.5135650239318609
1684108181192049400,5.36504931640625,3.441053476577997,2.5500913100481033,0.7313970429956913
1684108181202067500,5.3750673828125,3.9779835940062998,2.8058143760889767,0.5649591110825538
1684108181212084200,5.385084228515625,2.9186206710577007,2.332036588144302,-0.5172615403622388
1684108181222102500,5.3951025390625,1.5055179599523543,1.4752823961645365,-1.156734917420149
1684108181232119300,5.405119384765625,0.18983864471223205,0.7382540692836046,-0.7668073790729045
1684108181242137300,5.415137451171875,-0.6547534368414432,0.6584954729139805,-0.48787820948958394
1684108181252154400,5.425154296875,-1.317602355724573,0.9814321265280246,-0.2482037764519453
1684108181262171400,5.43517138671875,-1.229465807110071,1.5596563773751257,-0.16127368101775647
1684108181272189400,5.445189453125,-0.43128136606402695,2.0902771655261514,-0.42425650892853733
1684108181282206200,5.455206298828125,0.08241407931447028,1.9586025039583443,-1.0193465543806552
1684108181292224500,5.465224609375,0.10392916103005409,1.0494137758642434,-1.3786135815262794
1684108181302241300,5.4752412109375,-0.13297872990369797,0.006315759018063545,-1.3085183010369539
1684108181312259300,5.48525927734375,-0.3838439075846225,-0.8163456092238426,-1.0098533343702554
1684108181322276400,5.4952763671875,-0.5799533396620303,-1.4434277067422865,-0.5956441722035407
1684108181332294400,5.50529443359375,-0.7052326011043042,-1.7814713285952806,-0.2799608507186174
1684108181342311400,5.5153115234375,-0.8726899391930549,-1.7908651798844337,0.016546061131358147
1684108181352329500,5.52532958984375,-0.925945801627636,-1.5729957514196633,0.2255290033072233
1684108181362346500,5.535346435546875,-0.6856511908650398,-1.2456313444912432,0.28672026185095306
1684108181372364300,5.5453642578125,-0.37977088599205017,-0.8284463813841343,0.32328970483541486
1684108181382381300,5.55538134765625,-0.05829787518978118,-0.4110299476087093,0.4197784867316484
1684108181392398300,5.5653984375,0.24768764362335205,-0.10391688607037067,0.4285357936829328
1684108181402416400,5.57541650390625,0.5816202864935621,0.13144143733382224,0.37803076432645316
1684108181412433400,5.585433349609375,0.8229904540657996,0.31083412788808346,0.20772738915681838
1684108181422451500,5.595451416015625,0.9322761736929416,0.4814928923666477,-0.08299918572604656
1684108181432468500,5.605468505859375,1.0198960049569605,0.6270546249896287,-0.29402678547203537
1684108181442486300,5.615486328125,1.0930676241517066,0.6894985139429569,-0.5140548532754182
1684108181452503600,5.625503662109375,1.00717797768116,0.7349976978361606,-0.7523802097916603
1684108181462521300,5.635521240234375,0.8752782751858234,0.7685194436877966,-0.8485457510828971
1684108181472538400,5.645538330078125,0.7128864037930965,0.7669581857204437,-0.8474211309671401
1684108181482556400,5.655556396484375,0.6198305189549923,0.6937211000740527,-0.7525871305406093
1684108181492573400,5.665573486328125,0.5381108516454697,0.5557827019363641,-0.7366483876526355
1684108181502590500,5.675590576171875,0.5073509717226028,0.4292997637927532,-0.6981938615739345
1684108181512608300,5.685608154296875,0.5257049590587616,0.370543038919568,-0.5060317058175802
1684108181522625500,5.69562548828125,0.5510802233338356,0.3140829005509615,-0.2475064418375492
1684108181532643300,5.705643310546875,0.6133820734679699,0.2513473351746797,0.09630465750098229
1684108181542660400,5.715660400390625,0.7422855167567729,0.1701648434817791,0.4073708405792713
1684108181552678400,5.725678466796875,0.879277573955059,0.008298457267880439,0.6513695665568113
1684108181562695400,5.7356953125,0.9245148920416831,-0.17643559431433678,0.684319065478444
1684108181572713500,5.74571337890625,0.9699059393852949,-0.3224164291322231,0.7426596107661724
1684108181582730200,5.755730224609375,0.9522983865022658,-0.46649347615540027,0.8297153784066438
1684108181592748300,5.765748291015625,0.9198667739748955,-0.5039397019743919,0.8348498186856508
1684108181602765300,5.775765380859375,0.8586322608113288,-0.5212041405081749,0.8941483953505754
1684108181612783400,5.785783447265625,0.752731507447362,-0.5254308182924986,0.8916507333159446
1684108181622800400,5.79580029296875,0.5980518178671598,-0.46020051349103447,0.8337854043245315
1684108181632817400,5.8058173828125,0.359047246915102,-0.39076223560571666,0.7213771687626839
1684108181642835500,5.81583544921875,0.10368893166654743,-0.3094634240567684,0.5975175648599863
1684108181652852200,5.825852294921875,-0.1600993765413761,-0.25340368318259715,0.48468438188433643
1684108181662870500,5.83587060546875,-0.3246954799801111,-0.14783669181764125,0.4402396754801273
1684108181672887300,5.84588720703125,-0.5099065014243126,-0.0897638575553894,0.3115016518861055
1684108181682905300,5.8559052734375,-0.6270195536762475,-0.06504676492810249,0.23926819032430646
1684108181692922400,5.86592236328125,-0.7073001280933618,-0.16158932283818722,0.07306406716704368
1684108181702940400,5.8759404296875,-0.7392243756204843,-0.27627310211658473,-0.12275836466252803
1684108181712957400,5.88595751953125,-0.7634890483051539,-0.35336277153789997,-0.44762394051253795
1684108181722975500,5.8959755859375,-0.8213070310235023,-0.2724590967863798,-0.6579898614794015
1684108181732992500,5.905992431640625,-0.8067460062295198,-0.0367471376389265,-0.6862199306637048
1684108181743010300,5.91601025390625,-0.7711047840058803,0.2863350619256496,-0.6487357109218835
1684108181753027300,5.92602734375,-0.6908902605623006,0.6177332544147968,-0.5882125608980655
1684108181763044400,5.93604443359375,-0.6070926179349422,0.8810293860584497,-0.5550923815846442
1684108181773062400,5.9460625,-0.4780980257639661,0.951324573034048,-0.6989964101284742
1684108181783079400,5.956079345703125,-0.3285831350684166,0.8661281695246696,-1.004346553647518
1684108181793097500,5.966097412109375,-0.2608522456228733,0.7213859365910291,-1.289040278106928
1684108181803114500,5.976114501953125,-0.2653829113224521,0.6296428879171609,-1.4224527232527733
1684108181813132300,5.98613232421875,-0.3633586803734302,0.5763777461975813,-1.3093448149889706
1684108181823149600,5.996149658203125,-0.446402289763093,0.47216976822614665,-1.1717524538099766
1684108181833167400,6.00616748046875,-0.5927420210212468,0.3072363956570625,-1.032847840988636
1684108181843184400,6.016184326171875,-0.8110655499290674,0.05389058014154434,-0.9134843794614076
1684108181853202400,6.026202392578125,-1.087251631349325,-0.2652916893750429,-0.735705553844571
1684108181863219500,6.036219482421875,-1.3427157541930674,-0.5419879853397608,-0.5547960289865732
1684108181873236500,6.046236572265625,-1.5835200680434702,-0.7778460749596356,-0.3560568329274654
1684108181883254300,6.056254150390625,-1.7541379159897565,-0.8673556654930115,-0.1954430771231651
1684108181893271600,6.066271484375,-1.9510159943521022,-0.849482155150175,0.03931085064709186
1684108181903289300,6.076289306640625,-2.1354472635954616,-0.7812906624555588,0.45053427500128745
1684108181913306400,6.086306396484375,-2.240556574320793,-0.7741559882700443,0.8984270955830812
1684108181923324400,6.096324462890625,-2.301055758947134,-0.9240987124562263,1.1525392192959785
1684108181933341400,6.106341552734375,-2.2791636606127024,-1.1521978585124015,1.3402449801653622
1684108181943359500,6.116359375,-2.115701529639959,-1.4493933371484278,1.635086004629731
1684108181953376300,6.126376220703125,-1.6158090572297572,-1.7061124284893274,2.2042367221832273
1684108181963394300,6.136394287109375,-0.7359972302675247,-1.8341355818122624,2.8990409413188694
1684108181973411300,6.146411376953125,0.34041268907189365,-1.75387020496428,3.4211206956177946
1684108181983429400,6.156429443359375,1.1692980463951825,-1.4583230780571699,3.4055893644869326
1684108181993446400,6.1664462890625,1.5945096640914678,-0.9911498029440641,3.1205957802981135
1684108182003463400,6.17646337890625,1.8128087161451578,-0.595903115400672,2.620215232110023
1684108182013481500,6.1864814453125,2.0211329021513462,-0.29452947429716586,1.968538207039237
1684108182023498200,6.196498291015625,2.2326216896682975,-0.11664894187152385,1.5181529851198194
1684108182033516300,6.206516357421875,2.274012853720784,-0.0364729968726635,1.1281132185697555
1684108182043533300,6.216533203125,2.166447966536879,-0.04732523027658462,0.9074135351151228
1684108182053551400,6.22655126953125,2.0312509760618207,-0.08005027279257775,0.9274515300154685
1684108182063568400,6.236568359375,1.871374886882305,-0.01962590696811676,0.8756289883196353
1684108182073586400,6.24658642578125,1.6576514721810818,-0.029013328516483305,0.9295020328044891
1684108182083603500,6.256603515625,1.2006880409151315,-0.2480079616189003,1.1334306142002344
1684108182093621500,6.26662158203125,0.6654746642768382,-0.38434652334451674,1.084441250103712
1684108182103638500,6.276638427734375,-0.03929455709941685,-0.5794605146437883,0.8796224418699741
1684108182113656300,6.28665625,-0.6004156243890524,-0.5489087245136499,0.4851864861875772
1684108182123673600,6.296673583984375,-1.0891232704401015,-0.44009471405148504,0.1773708293378353
1684108182133690600,6.306690673828125,-1.494052563086152,-0.590925326988101,0.47857905074656004
1684108182143708700,6.316708740234375,-1.4168138405829667,-0.6966326036065816,0.01412204885482788
1684108182153725700,6.3267255859375,-1.378793029746413,-0.49597968288064,-1.01905780056715
1684108182163743700,6.33674365234375,-1.4473054249584674,-0.24983576156795023,-1.3491864115118979
1684108182173760800,6.3467607421875,-1.3901415222346782,0.04668517880737781,-1.564585065948963
1684108182183778800,6.35677880859375,-1.1701094358433037,0.364789589959383,-1.8266846812844275
1684108182193795600,6.366795654296875,-0.9060866704255341,0.705984953841567,-2.0230641624748706
1684108182203813600,6.376813720703125,-0.5587286191951483,1.0737690494418144,-2.1042647743463516
1684108182213830700,6.38683056640625,-0.04241466188132763,1.315043903413415,-2.0749393111407755
1684108182223848700,6.3968486328125,0.5419494068950415,1.433009188580513,-1.6780033553361893
1684108182233865700,6.40686572265625,1.0409821206707506,1.4936802226424217,-1.0466349588006734
1684108182243883500,6.416883544921875,1.4843068296194075,1.518090441277623,-0.6308142697840928
1684108182253900800,6.42690087890625,1.8252707228332756,1.4561211840987205,-0.3472141857802868
1684108182263917600,6.43691748046875,1.9137445405781268,1.3773743951201438,-0.23389760320186614
1684108182273935600,6.446935546875,1.8067390408426522,1.3434504982084035,-0.34985680924355983
1684108182283952600,6.45695263671875,1.5030167907863854,1.3695751195460557,-0.5349257918685675
1684108182293970700,6.466970703125,1.0127274285018444,1.3759534224063157,-0.8499749071031808
1684108182303987700,6.47698779296875,0.5003747029691934,1.3252870650082826,-1.0236316843539475
1684108182314005500,6.487005615234375,-0.0014577975928783415,1.258703592032194,-1.1215800174087285
1684108182324022500,6.4970224609375,-0.4309125327516347,1.199790215292573,-1.0641028109520674
1684108182334040600,6.50704052734375,-0.7121206801176071,1.0992816763609647,-0.9251496828138828
1684108182344057600,6.5170576171875,-0.6917038419675081,0.9452946452200413,-0.7846686144560575
1684108182354075600,6.52707568359375,-0.36483335603587325,0.6040916825532913,-0.7300877139627933
1684108182364092700,6.5370927734375,0.05141344943828881,0.09014555034935474,-0.7224333998173474
1684108182374110700,6.54711083984375,0.3448656498927623,-0.4812263503849506,-0.4999310508549213
1684108182384127700,6.557127685546875,0.43276422503292555,-0.9189777161806821,-0.08199205451011657
1684108182394144500,6.56714453125,0.230557645124197,-1.2070552378594874,0.4951525844067335
1684108182404162600,6.57716259765625,-0.19483977746777234,-1.2947995722860097,1.1163462084084748
1684108182414179600,6.5871796875,-0.6716793641358614,-1.1801409274488688,1.62721775547266
1684108182424197600,6.59719775390625,-1.0268394674193113,-0.9403554352521896,2.034264770925045
1684108182434214700,6.607214599609375,-1.185496317002177,-0.6011895313709974,1.9514391882002353
1684108182444232700,6.617232666015625,-1.1041963364094496,-0.2474099957257509,1.3488321912467478
1684108182454249700,6.627249755859375,-0.8455774758618324,0.08028875772356986,0.7362532508552074
1684108182464267800,6.637267822265625,-0.33167810540907083,0.2693476867675781,0.1390863991290331
1684108182474284500,6.647284423828125,0.40438334920108315,0.45083062759935855,-0.3371469652742147
1684108182484302800,6.657302734375,1.1545738669287413,0.6121896488130092,-0.7006646356016397
1684108182494319600,6.667319580078125,1.705624352711439,0.7471043152153491,-0.9459978250533342
1684108182504337700,6.677337646484375,1.9948995597422121,0.791689306873083,-1.227569033578038
1684108182514354700,6.687354736328125,2.05061092557013,0.6965577848047018,-1.3994623082876205
1684108182524371700,6.697371826171875,1.7773031029999256,0.550408023160696,-1.387590668708086
1684108182534389800,6.7073896484375,1.1126638666339217,0.4432411953836679,-1.0670534774512053
1684108182544406500,6.717406494140625,0.26365561260581016,0.4022024980306625,-0.43492578698098655
1684108182554424800,6.7274248046875,-0.5958662905216217,0.40263621327280996,0.14771335769891739
1684108182564441600,6.737441650390625,-1.375093006184697,0.4558516706317663,0.6913660613805055
1684108182574459600,6.747459716796875,-2.006241037967801,0.5019517430275678,1.117298979088664
1684108182584476700,6.7574765625,-2.4904811832159757,0.4162584959119558,1.3890256699472665
1684108182594494500,6.767494384765625,-2.8045693444639443,0.19485913975536823,1.4795628499627111
1684108182604511700,6.77751171875,-2.9199586416631935,-0.08377250818610191,1.318262280938029
1684108182614529500,6.787529541015625,-2.811279071235657,-0.3619143267840147,0.9541495673269033
1684108182624546800,6.797546875,-2.508354693558812,-0.4722065931051969,0.42565117815732956
1684108182634564600,6.807564697265625,-2.0817817243814467,-0.4036275623977184,-0.14528759185671805
1684108182644581600,6.81758154296875,-1.5122083975017069,-0.3076414693266153,-0.7148609187364577
1684108182654598700,6.8275986328125,-0.8152069605827331,-0.22070377510786054,-1.1461959877490997
1684108182664616700,6.83761669921875,0.0338806422919035,-0.21536650573313235,-1.2380600324541329
1684108182674633700,6.8476337890625,0.8667856835853308,-0.28911738612055776,-0.9730144267946481
1684108182684651500,6.857651611328125,1.6300181998461485,-0.4453682705402374,-0.531802691411972
1684108182694668500,6.86766845703125,2.2148580694407225,-0.6944102513819933,-0.05650806916356087
1684108182704686600,6.8776865234375,2.4401351438134906,-0.9396785589039325,0.45822950567901133
1684108182714703600,6.88770361328125,2.260124029099941,-1.0934317812889813,0.6993839481413364
1684108182724721700,6.8977216796875,1.8643091862797736,-1.066568908804655,0.6063596274852753
1684108182734738700,6.90773876953125,1.2714274645268917,-0.9236363556414842,0.5115747268974781
1684108182744756700,6.9177568359375,0.7469213598638772,-0.8357406300455331,0.6542039131999016
1684108182754773500,6.9277734375,0.5081254997590556,-0.8146136708647013,1.0209013826072215
1684108182764791800,6.937791748046875,0.6426356404811143,-0.8105734555631876,1.26065063444674
1684108182774808600,6.94780859375,0.8834422924190759,-0.6488724890440702,1.2692717477977276
1684108182784825600,6.95782568359375,1.0215928720027208,-0.2100923647224903,1.2907307154119014
1684108182794843600,6.96784375,1.2294897725075482,0.4673907172560692,1.3787071050286293
1684108182804860700,6.977860595703125,1.7527637050271032,1.2467968811392784,1.8040017248332498
1684108182814878700,6.987878662109375,2.3846008881181477,1.8189263222426175,2.3691104735195636
1684108182824895700,6.997895751953125,2.59247090061605,1.9513696300953625,2.3991835402220487
1684108182834913800,7.007913818359375,2.101778218227625,1.6210773530215024,2.031397691056132
1684108182844930600,7.0179306640625,1.141319906145334,1.1757061598718166,1.3266408177047968
1684108182854948900,7.027948974609375,0.08363225946519523,0.9838497090637683,0.737445675510168
1684108182864965600,7.037965576171875,-0.6990905181527137,0.9080138390958309,0.31883915516734124
1684108182874983400,7.0479833984375,-1.0110054270148277,0.6897551190525293,-0.08140636357665061
1684108182885000700,7.058000732421875,-0.9284732742786407,0.33288930782973764,-0.44477790343165396
1684108182895018500,7.0680185546875,-0.7724013266224413,0.009444120171666145,-0.8895710044324397
1684108182905035800,7.078035888671875,-0.8501776631336658,-0.040871524092555046,-1.3339613698512316
1684108182915053600,7.088053466796875,-0.9846562762062996,0.133644500336051,-1.6624679325520992
1684108182925070800,7.09807080078125,-0.9976561160981654,-0.040703766310214995,-1.8595605304479599
1684108182935087600,7.108087646484375,-0.9846364755272865,-0.6400052919775248,-1.8430968869030475
1684108182945105700,7.118105712890625,-1.1503485043186694,-1.421593476074934,-1.5459750580251217
1684108182955122700,7.128122802734375,-1.544027431088686,-2.00118901527524,-1.3147253389835356
1684108182965140500,7.138140380859375,-1.989043819451332,-2.3892811548888684,-1.1483324152559042
1684108182975157800,7.14815771484375,-2.3648317732870576,-2.702552739056945,-0.9057090692847967
1684108182985175600,7.158175537109375,-2.5243384446322916,-2.9698066684156657,-0.5482365243405103
1684108182995192800,7.16819287109375,-2.48853297175765,-3.106040600723028,-0.17850129467248915
1684108183005210600,7.178210693359375,-2.146720937281847,-3.099731271445751,0.34090602554678917
1684108183015227600,7.1882275390625,-1.3185153789162636,-2.8369921891629692,1.0651876835793257
1684108183025245700,7.19824560546875,-0.2736240123799071,-2.0400427698045966,1.0956102943718433
1684108183035262500,7.208262451171875,0.9410872566580771,-1.2064520112693309,0.24515140314400194
1684108183045280800,7.21828076171875,2.5135212825417517,-0.6166390294373035,-0.41470892838239665
1684108183055297500,7.228297607421875,2.9707261213481426,-0.2657072844386101,-0.738029612877965
1684108183065314600,7.238314453125,1.84309221072793,-0.07819090866148472,-0.7987257813811302
1684108183075332600,7.24833251953125,0.5211252300530672,0.07038929499983787,-0.6489005460947752
1684108183085349600,7.258349609375,-0.24067747260034084,0.33162498698234555,-0.43947979702353474
1684108183095367700,7.26836767578125,-0.6813637228041887,0.7548527373850346,-0.45710839269459247
1684108183105384700,7.278384765625,-0.9658137016355991,1.2041624390274286,-0.6507984886705875
1684108183115402800,7.28840283203125,-1.0526011737287044,1.5718430742532015,-0.7348989136368036
1684108183125419500,7.29841943359375,-0.9574895254045724,1.9132471124500035,-0.7400023742556572
1684108183135437600,7.3084375,-0.7229922027438879,2.2523563177078962,-0.4849228668153286
1684108183145454600,7.31845458984375,-0.459804207649827,2.445330374369025,-0.06435644457638263
1684108183155472600,7.32847265625,-0.34219606535732744,2.3040707228541373,0.29451953742504117
1684108183165489700,7.33848974609375,-0.4502788389354944,1.828330694925785,0.4665338081657886
1684108183175507500,7.348507568359375,-0.6311304961264133,1.2585825960010288,0.3247691297382116
1684108183185524500,7.3585244140625,-0.8103016528844833,0.7974556153148412,0.03215980984866619
1684108183195542500,7.36854248046875,-0.8280781325936317,0.5971183364093303,-0.10931786833107471
1684108183205559600,7.3785595703125,-0.7388280697792768,0.6187415546745062,-0.04990238728821277
1684108183215576600,7.38857666015625,-0.5138824193179607,0.8874053508311509,0.09475158284008503
1684108183225594600,7.3985947265625,0.03979659290399868,1.4311755434125661,0.2749146732449531
1684108183235611600,7.408611572265625,1.192339314764738,1.9166513679355381,0.4503881445288658
1684108183245629400,7.41862939453125,2.5385189456760884,2.0569588332921267,0.5191968923389911
1684108183255646500,7.428646484375,2.9339643706619736,1.5802449918955563,0.44154023668467995
1684108183265664500,7.43866455078125,2.2546213400304316,0.6495856057494879,0.354714770668745
1684108183275681500,7.448681640625,1.1975509119331835,-0.11063596519231796,0.4456131852120161
1684108183285699600,7.458699462890625,0.07535426046345382,-0.5475456194669008,0.44450376266539093
1684108183295716600,7.468716552734375,-0.866323399835825,-0.6583271306097507,0.14875205309689044
1684108183305734700,7.478734619140625,-1.4445090722382068,-0.5851163484483957,0.14317162261605262
1684108183315751700,7.488751708984375,-1.5685001935660838,-0.43283202957212924,0.5965262157350778
1684108183325769700,7.498769775390625,-0.9265291544735431,-0.10081950457692146,1.5433236667335033
1684108183335786500,7.508786376953125,1.1055518426716326,0.5366097994327544,3.2676801924437284
1684108183345803500,7.518803466796875,3.89801164714694,1.3500064957231281,5.479824326750636
1684108183355821600,7.528821533203125,4.612195689535141,2.3295237285405395,6.722354782617091
1684108183365838600,7.538838623046875,2.992706482487917,3.4029619385927914,6.344291285064816
1684108183375856600,7.548856689453125,1.9854199298657476,4.355662476155161,6.139966982349753
1684108183385873700,7.558873779296875,3.1751357642590996,4.869707977080345,6.474206535744667
1684108183395891700,7.5688916015625,7.310359253722429,4.696627538412809,7.292969142982363
1684108183405908500,7.578908447265625,12.10989654698968,3.987067064172029,7.951018625694513
1684108183415926500,7.588926513671875,12.348029595804213,3.6260336118757723,7.015466206809878
1684108183425943600,7.598943603515625,8.830753295767307,3.1035505374729633,5.3984430976152415
1684108183435961600,7.608961669921875,6.712135001897812,2.084131502377987,4.152820520952344
1684108183445978600,7.618978515625,5.260933154022693,0.7247405077159405,2.942562103137374
1684108183455996400,7.628996337890625,1.9760157033130525,-0.399331326508522,2.0384335810422898
1684108183466013700,7.639013671875,-1.9097239067599177,-1.9950185099467634,1.3055746488004922
1684108183476031500,7.649031494140625,0.6165583654165268,-4.646871866118907,2.2549890042990444
1684108183486048500,7.659048583984375,6.089988607215881,-6.339489437741041,4.442362854486704
1684108183496066600,7.669066650390625,-0.8671893690153956,-3.633027708546817,2.744214536744356
1684108183506083600,7.67908349609375,-8.072115194624661,-0.529146916206181,-0.8742658832728862
1684108183516100600,7.6891005859375,-8.603428641214967,0.47268531653285023,-1.175074876230955
1684108183526118400,7.699118408203125,-4.8829491514474155,2.813298594364524,-1.275882105848193
1684108183536135700,7.7091357421875,-4.908630705192685,4.42148197902143,-2.538002228325605
1684108183546153500,7.719153564453125,-8.92399915021956,3.578795767621696,-2.9951702422529456
1684108183556170500,7.72917041015625,-10.153854833430051,2.6006784647300836,-2.554730075764656
1684108183566188500,7.7391884765625,-7.893654231962561,2.6018469239875675,-1.9206477440953253
1684108183576205600,7.74920556640625,-3.9812884807705875,2.9334187194779515,-1.2463234184086323
1684108183586223600,7.7592236328125,-0.8447299921870232,3.0881206208899616,-0.2462029580235481
1684108183596240600,7.76924072265625,-2.284199901214242,2.7763495044127104,1.015337318739295
1684108183606258700,7.7792587890625,-5.42271010838747,2.6756045263767243,1.2496487634390592
1684108183616275500,7.789275390625,-7.452668706551194,2.690386792705953,0.6677659900844096
1684108183626293800,7.799293701171875,-8.516669810694456,2.676055485014617,-0.5234335069954394
1684108183636310500,7.809310546875,-8.444639762750267,2.515909931243956,-2.1557237434267997
1684108183646327600,7.81932763671875,-7.3229825884521,2.2561662313848734,-4.194150310206413
1684108183656345600,7.829345703125,-6.2520964009702205,1.701146622775495,-5.874997364535927
1684108183666362600,7.839362548828125,-5.807481579145789,0.7096721179217099,-7.423885095137357
1684108183676380700,7.849380615234375,-5.937984274324775,-1.0122603955119847,-8.138598714357615
1684108183686397400,7.8593974609375,-6.175988728323579,-2.6764012297123667,-7.2579264711737626
1684108183696415700,7.869415771484375,-6.1475645978719,-3.763285196793079,-6.39141368624568
1684108183706432500,7.8794326171875,-5.6665790705055,-4.50372713150978,-6.039053369748592
1684108183716450600,7.889450439453125,-4.709906122180819,-5.018009363800287,-5.764701591083407
1684108183726467600,7.899467529296875,-3.318997707226872,-5.3428340231180185,-5.3676721117764705
1684108183736485400,7.9094853515625,-0.8473007194578647,-5.475933164530992,-4.847994742444158
1684108183746502700,7.919502685546875,2.890158546683192,-4.847912032596767,-4.092726409995556
1684108183756520400,7.9295205078125,6.049130527126788,-1.93895380063653,-2.789474651184678
1684108183766537700,7.939537841796875,6.847362387511134,1.2747151078954337,-1.136525657606125
1684108183776555500,7.949555419921875,4.455407629498839,2.573387722222507,0.14203355849683283
1684108183786572500,7.959572509765625,0.5791209074258804,2.048855460204929,0.4533446562469005
1684108183796589600,7.969589599609375,-1.827246991342306,1.819589170065522,0.8059469648063182
1684108183806607400,7.979607421875,-1.4509873283416033,2.4929823523819445,1.9890210230976342
1684108183816624600,7.989624755859375,-0.7929770085960626,3.7199376379758116,3.3766835879981514
1684108183826642400,7.999642333984375,-2.753466349214315,4.734088961800933,3.9359208143025635
1684108183836659700,8.00965966796875,-3.9980923160552977,4.317325438976288,4.053373473772407
1684108183846677500,8.019677490234375,-3.326546222910285,2.723934842042625,3.231822112599015
1684108183856694500,8.029694580078125,-1.5174217482358217,0.555734478880465,1.4427490768283604
1684108183866712600,8.039712646484375,1.1042173791974783,-1.2456216998800635,0.14150456618666649
1684108183876729600,8.0497294921875,2.669583950912952,-1.8425562041550874,-0.1992483146250248
1684108183886747600,8.05974755859375,1.5031769497841596,-1.3522127735957503,-0.24333529363274572
1684108183896764400,8.069764404296874,-0.3753279351085424,-0.21988398315757512,-0.17427461688816545
1684108183906782700,8.07978271484375,-1.4099644130796194,1.2125626031041146,-0.33978140543103214
1684108183916799500,8.089799560546876,-1.6140139905065296,2.264652612440288,-0.9708470196276903
1684108183926816500,8.09981640625,-1.304765670505166,2.4150346048265696,-1.664553506654501
1684108183936834600,8.10983447265625,-0.9226192875534296,2.013984491701424,-1.9543968689620494
1684108183946851600,8.1198515625,-0.5365034164488315,1.598446126757562,-1.7260358570992946
1684108183956869600,8.12986962890625,-0.14826865349411963,1.5530395895838736,-1.5133277569204568
1684108183966886400,8.139886474609375,-0.26669103477895256,1.6682485617801546,-1.524258316257596
1684108183976904700,8.14990478515625,-0.847337544336915,1.6662158869087695,-1.449475170212984
1684108183986921500,8.15992138671875,-0.3596750234246254,1.4844842320129275,-0.9995809466809034
1684108183996939800,8.169939697265624,1.5897551630407571,1.266618895201385,0.04543664005100727
1684108184006956500,8.17995654296875,3.816602360960841,1.3026119996026158,1.255742404139042
1684108184016974300,8.189974365234375,4.249542527082562,1.4673928119584918,2.1329402492105958
1684108184026991600,8.19999169921875,2.376937221622467,1.2693056500673294,2.2629677280932663
1684108184037009400,8.210009521484375,0.22400164760947225,0.5884943004488945,1.6664666467994451
1684108184047026700,8.220026611328125,-0.6182920573413372,-0.30783816094249483,0.6372901877999305
1684108184057044500,8.23004443359375,-0.8543085523933172,-1.0278124771699308,-0.3004313918173313
1684108184067061800,8.240061767578124,-1.310152039718628,-1.560077525396645,-0.9294447496592998
1684108184077079600,8.25007958984375,-1.8274217633873224,-1.781595247235894,-1.259725920817256
1684108184087096600,8.2600966796875,-1.8653145639300346,-1.8492270602211356,-1.2689800713747739
1684108184097113600,8.270113525390625,-0.9552268411695957,-2.0894544509664175,-1.0247545509040354
1684108184107131400,8.28013134765625,0.4889999069958925,-2.176832874689996,-0.5709767639368772
1684108184117148700,8.290148681640625,1.7373393414020537,-1.8960311892330646,0.16982056008875368
1684108184127166000,8.300166015625,2.361349776390195,-1.138323354677856,0.741280139106512
1684108184137183200,8.310183349609375,2.1141829417705535,-0.021182781021296976,0.7968710934251546
1684108184147201000,8.320200927734374,1.4374386954605578,0.7009504668056964,0.6097428401827811
1684108184157218300,8.33021826171875,0.6380693554788828,0.9905430692225694,0.38529052619636056
1684108184167236000,8.340236083984376,-0.28056933800578115,1.1247209457829594,0.09686462947130203
1684108184177253000,8.350253173828126,-0.8819634520381688,1.1064105053275823,-0.3517670267790556
1684108184187271200,8.360271240234376,-0.9964151761263609,0.9453215332269668,-0.8664064019441604
1684108184197288000,8.370287841796875,-0.5722095206022262,0.6844485370770096,-1.2423568528652191
1684108184207306200,8.38030615234375,0.10303308897316456,0.42114159177839755,-1.3736416383326053
1684108184217323000,8.390322998046875,0.31238837159276006,0.17261778959184884,-1.1496674632519484
1684108184227341000,8.400341064453125,0.20704408306777475,-0.02933510781675577,-0.7949860103309154
1684108184237358000,8.410358154296874,-0.013753800064325332,-0.17750906876474618,-0.40191666682660576
1684108184247375400,8.420375244140626,-0.4403314454168081,-0.22248598234951494,-0.20583353823423384
1684108184257393200,8.43039306640625,-1.0827940674185752,-0.1803364011451602,-0.3134937024861574
1684108184267410000,8.440409912109375,-1.7335820346951483,-0.1323261112138629,-0.7000760220587253
1684108184277428200,8.45042822265625,-1.2685457716107367,-0.20505057116299866,-1.170968609955907
1684108184287445000,8.460445068359375,-0.04784253214895725,-0.3859221020981669,-1.4620570038884877
1684108184297463300,8.47046337890625,0.3782862003922462,-0.33903058706372974,-1.5215958190500736
1684108184307480000,8.48047998046875,0.056153848898410796,-0.08768938936889172,-1.518493176859617
1684108184317498000,8.490498046875,-0.5537275229722262,0.12434300350546836,-1.307799923634529
1684108184327515100,8.50051513671875,-0.8938175559610128,0.11540975546538829,-0.9764695356845855
1684108184337533200,8.510533203125,-0.5470645579516887,-0.048130701440572736,-0.6024041678577661
1684108184347550200,8.52055029296875,0.7767167786687612,-0.30528555385023354,0.19978665928542613
1684108184357568300,8.530568359375,2.152274479755759,-0.408859617832303,1.433612999692559
1684108184367585300,8.540585205078125,1.7549276050627232,-0.3448752214387059,2.526319973838329
1684108184377603000,8.55060302734375,0.18056290337741374,-0.30276889485418795,3.1241373984277248
1684108184387620000,8.5606201171875,-0.8980646920114755,-0.44689007328003644,3.0422903053462504
1684108184397638100,8.57063818359375,-1.0990981364876031,-0.7868094258770346,2.354517884543538
1684108184407655200,8.5806552734375,-0.9135235424280166,-1.0856377664119004,1.535810222363472
1684108184417672200,8.590672119140624,-0.5882046698525548,-1.1907719193175434,0.6378653573393821
1684108184427690200,8.600690185546876,-0.1821267916932702,-1.1719602513417602,-0.1804343085616827
1684108184437707300,8.610707275390626,-0.19580021999776362,-1.186669452434778,-0.8507324474722147
1684108184447725000,8.62072509765625,-0.5090811565160751,-1.1379732260659337,-1.3685346705824135
1684108184457742300,8.630742431640625,-0.6914233445256948,-0.8932312805056571,-1.4907061752676962
1684108184467760000,8.640760009765625,-0.5426598932519555,-0.47482203630059955,-1.2438105588048696
1684108184477777200,8.650777099609375,-0.4234820174247026,-0.03466331710219383,-0.9611842882692814
1684108184487795200,8.660795166015625,-0.40648499765545126,0.3920829628154635,-0.8867512708365917
1684108184497812000,8.67081201171875,-0.27340660676956174,0.6456386216893791,-1.0683318268239497
1684108184507830000,8.680830078125,-0.310478738579154,0.6579124123290181,-1.3314736446887254
1684108184517847000,8.690846923828126,-0.24262451501488685,0.4533271205902099,-1.576765333086252
1684108184527865000,8.700864990234376,0.04908990186154842,0.19902122787088156,-1.6469377704650163
1684108184537882000,8.710882080078125,0.06842413240671158,-0.0733639268964529,-1.4346160392552614
1684108184547900200,8.720900146484375,-0.1775105300694704,-0.3037950230315328,-1.106882799014449
1684108184557917200,8.730917236328125,-0.37877778330147266,-0.4465475434526801,-0.9185206200629472
1684108184567934000,8.740933837890625,-0.46349254077374935,-0.5001148829892278,-0.7823585839480162
1684108184577952300,8.7509521484375,-0.3345166167706251,-0.4614271326765418,-0.7469938405781984
1684108184587969000,8.760968994140624,0.06112228496074676,-0.2688064194977283,-0.7955173407286406
1684108184597987000,8.770987060546876,0.19061726440191268,-0.010884089846909046,-0.7718558946341276
1684108184608004000,8.781004150390626,-0.19364742587804792,0.09937865811884403,-0.6850777748912572
1684108184618022100,8.791022216796875,-0.6603595132201909,0.013237667235732078,-0.6280033040165901
1684108184628039200,8.8010390625,-0.7902578127652407,-0.09974339977800846,-0.6505711096554995
1684108184638057200,8.81105712890625,-0.8300637534528971,-0.042513153819739816,-0.6602917086809873
1684108184648074200,8.82107421875,-0.797629510577023,0.1444993640884757,-0.7654881131678819
1684108184658092300,8.83109228515625,-0.6350637439221143,0.32840631719678637,-0.9685264677256346
1684108184668109000,8.841109130859374,-0.25874796682000156,0.427645859105885,-1.172197274968028
1684108184678127000,8.851127197265624,0.24074323131293057,0.4703174183577299,-1.2588234190195797
1684108184688144100,8.86114404296875,0.5227595532566308,0.4304585784390568,-1.2106079619050025
1684108184698162200,8.871162109375,0.3400046927928924,0.29322452917844055,-0.9490607197552919
1684108184708179200,8.88117919921875,0.19307196407765148,0.10823942544460297,-0.5147627092838287
1684108184718197000,8.891197021484375,0.22644553363025188,-0.10322978058904408,0.08437339668869971
1684108184728214300,8.90121435546875,0.15534312192499636,-0.26429829442352054,0.7995429429829121
1684108184738231300,8.911231201171875,-0.19253040454685688,-0.3892798880934715,1.4494740011692047
1684108184748249000,8.9212490234375,-0.6464835480809211,-0.4849082537680864,1.9979151081711053
1684108184758266000,8.93126611328125,-0.9274906929820775,-0.6251005683124065,2.4118267486959692
1684108184768284200,8.9412841796875,-0.9390665644854307,-0.7287596802294254,2.4580583385169503
1684108184778301200,8.95130126953125,-0.6279530351340771,-0.8052548908889293,2.1180103911042214
1684108184788319200,8.9613193359375,-0.2458727031558752,-0.7964034759134053,1.4860650714635848
1684108184798336300,8.971336181640625,-0.0502475474640727,-0.6417945134818553,0.8488678226441144
1684108184808354000,8.98135400390625,-0.1080722521841526,-0.37304362356364723,0.4102507799297571
1684108184818371000,8.99137109375,-0.4067600152045488,-0.07857143241167068,0.16822481532990932
1684108184828389000,9.00138916015625,-0.7721300354003906,0.09001052579283714,0.04053308591842651
1684108184838406100,9.01140625,-0.9358464333951473,0.09460194523632526,-0.13225450728237628
1684108184848424200,9.021424072265624,-0.843333277131617,0.05532324329316616,-0.2882663222491741
1684108184858441200,9.031441162109376,-0.6333966874927281,0.02264262444078922,-0.45447570610344407
1684108184868459300,9.041459228515626,-0.24702158093005416,0.014250059148669243,-0.570130376240611
1684108184878476000,9.05147607421875,0.261654794177413,0.08635784850418567,-0.5950111349970102
1684108184888494300,9.061494384765625,0.34365561651587484,0.17467618342638014,-0.5239180756419897
1684108184898511000,9.071510986328125,0.14711568406671285,0.22931202897727487,-0.35773557979464526
1684108184908528000,9.081528076171875,0.13190262510478495,0.2697363938242197,-0.15965630894899369
1684108184918546200,9.091546142578125,0.2842398432120681,0.27023148386478424,0.08748714479506016
1684108184928563200,9.101563232421874,0.350332025539875,0.2421294249743223,0.28475159212648865
1684108184938581200,9.111581298828124,0.24123189161270855,0.13721534456014634,0.37749358870983124
1684108184948598300,9.121598388671876,0.16237053634375334,-0.06718026982545852,0.37000586330294605
1684108184958616300,9.1316162109375,0.025574878500401972,-0.28746728082597256,0.4519610929340124
1684108184968633000,9.141633056640625,-0.10953063429892063,-0.5070978737443685,0.4554378291338682
1684108184978651100,9.151651123046875,-0.18737492147982118,-0.6704822633057832,0.41399873428642747
1684108184988668200,9.161668212890625,-0.337454131527245,-0.6489443852365017,0.4964812026619911
1684108184998686000,9.17168603515625,-0.5194333314433693,-0.4912941554129123,0.5787666871607303
1684108185008703200,9.181703125,-0.5901894139289856,-0.3182335904896259,0.5064432092279195
1684108185018721000,9.191720947265624,-0.5407511370211839,-0.14681377851068972,0.4205295973598957
1684108185028738300,9.20173828125,-0.44377398708611726,-0.05083879135549068,0.32760055377185343
1684108185038756000,9.211756103515626,-0.2175236837670207,-0.014751578930020331,0.2140694516599178
1684108185048773000,9.221773193359375,0.09641542439907788,0.015986673682928085,0.07845569707751274
1684108185058791200,9.231791259765625,0.27400398814082144,0.11716156756877899,-0.04984335057735443
1684108185068808200,9.24180810546875,0.2644797884702682,0.3055740154027939,-0.16309914287924765
1684108185078825200,9.2518251953125,0.33296704924106596,0.5444295332729816,-0.3240419845074415
1684108185088843000,9.261843017578125,0.41897739948183294,0.7611059525609016,-0.453144165238738
1684108185098860300,9.2718603515625,0.2852025507643819,0.9800766202658414,-0.5503209293991327
1684108185108878000,9.281878173828124,0.010416472335159778,1.0798130057811737,-0.6722597943723201
1684108185118895000,9.29189501953125,-0.2270025829911232,1.0467360810875892,-0.8071317906767129
1684108185128913200,9.3019130859375,-0.41148587468266484,0.9074632194757462,-1.001644308951497
1684108185138930400,9.311930419921875,-0.4522913478016853,0.7307669283986091,-1.1612597013682127
1684108185148948200,9.3219482421875,-0.2466492404863238,0.5525882898092269,-1.2551532060742379
1684108185158965200,9.33196533203125,0.22183540948629377,0.4471241742968559,-1.0810364100962877
1684108185168983300,9.3419833984375,0.6521116170957684,0.4170639670759439,-0.6530266861140728
1684108185179000300,9.352000244140624,0.7981082340046763,0.4225362610071897,-0.14876725066602228
1684108185189018400,9.362018310546874,0.5080485985979437,0.308326528981328,0.21735797181129454
1684108185199035100,9.37203515625,0.10668459721803665,0.06150105514526367,0.45076048497259613
1684108185209053200,9.38205322265625,-0.1450260183110833,-0.24783494313955307,0.5789566567748785
1684108185219070200,9.3920703125,-0.2480269585803151,-0.541083145454526,0.6997574576288461
1684108185229088300,9.402088134765625,-0.2637950210765004,-0.7264438045024871,0.8367278875172137
1684108185239105300,9.412105224609375,-0.34956367151588197,-0.7744879967033863,0.9925783744424581
1684108185249122300,9.422122314453125,-0.5048445418596268,-0.7599351552158594,1.0868068101912736
1684108185259140400,9.432140380859375,-0.6597250147089362,-0.7438847686469554,1.1015361772894858
1684108185269157000,9.4421572265625,-0.6972802538603544,-0.6878238587290049,1.1243635106474161
1684108185279175200,9.452175048828124,-0.6603031068578362,-0.5930699378013611,1.1537567783921956
1684108185289192200,9.462192138671876,-0.5877773843511939,-0.5592758047491312,1.0153718055307865
1684108185299210200,9.472210205078126,-0.32043811479657885,-0.574558129554987,0.8281646418333053
1684108185309227300,9.482227294921875,0.015455635546147822,-0.5820493620932102,0.6606774931281805
1684108185319245300,9.492245361328125,0.10359043059498071,-0.5978039805859326,0.5106751477092504
1684108185329262300,9.502262451171875,-0.02279518465399742,-0.5554068543612957,0.30773148569762704
1684108185339280400,9.5122802734375,-0.044129941366612906,-0.4973632461935281,0.0835293470799923
1684108185349297400,9.52229736328125,0.0662099634885788,-0.3388514311045408,-0.0875765766441822
1684108185359315200,9.532315185546874,0.3280222863152623,-0.09231997177898883,-0.21600012746155262
1684108185369332200,9.542332275390624,0.6940092693656682,0.19150749123990535,-0.23920447743833065
1684108185379350300,9.552350341796876,0.8058098944231867,0.4034446070462465,-0.18194237503707408
1684108185389367300,9.5623671875,0.6144415193930268,0.5112146614134312,-0.03178220870792865
1684108185399385000,9.572385009765625,0.4490867065414786,0.5617109229415654,0.13423311387896536
1684108185409402400,9.58240234375,0.5203343719363213,0.5630354495435953,0.4480032952189445
1684108185419419400,9.59241943359375,0.5612649327397347,0.5236573788791895,0.816827839782834
1684108185429437200,9.602437255859375,0.3056336366355419,0.4288081808835268,1.1195587407141923
1684108185439454200,9.6124541015625,-0.00484612485691905,0.38539164848327634,1.2096435007870197
1684108185449472300,9.62247216796875,-0.027573066580295562,0.43583179591000076,1.2490496285021304
1684108185459489300,9.6324892578125,0.10531769277900457,0.4641214863270521,1.1986369536042212
1684108185469507300,9.64250732421875,0.2758148369550705,0.47999184015393254,0.9918664267808198
1684108185479524400,9.6525244140625,0.24034867903739213,0.4040045790165663,0.7218465398401022
1684108185489542100,9.662542236328125,0.21301365899667143,0.2651110721111297,0.3688976098001003
1684108185499559200,9.67255908203125,0.4542414589561522,0.055013446691632266,0.12382511711120604
1684108185509577200,9.6825771484375,0.6161271343924105,-0.16068156034350395,0.031140988194942473
1684108185519594200,9.69259423828125,0.20198621515631673,-0.45538463764190673,-0.11174714130461215
1684108185529612300,9.7026123046875,-0.4678654951609671,-0.6347481021016835,-0.020582184779644012
1684108185539629300,9.71262939453125,-0.8974491904616355,-0.681840692666173,0.3084200524836778
1684108185549647400,9.7226474609375,-0.8595638425730169,-0.5897796640843153,0.6082254213571548
1684108185559664000,9.7326640625,-0.31685528787374495,-0.22479016763865947,1.0967027657836674
1684108185569682400,9.742682373046875,0.5809985378660262,0.2826093194007873,1.4900211156129837
1684108185579699200,9.75269921875,0.7925203508697449,0.7833101855844259,1.3086229304552077
1684108185589717500,9.762717529296875,0.5032055424809455,1.0518015477836131,0.5513140320897102
1684108185599734300,9.772734375,0.38828503183722496,0.9614414779007434,-0.36471710924506184
1684108185609751300,9.782751220703124,0.5752011036336422,0.8002098824590445,-0.7769114244580269
1684108185619769300,9.792769287109374,0.8240637823857366,0.8973223492115735,-0.7483996157228946
1684108185629786400,9.802786376953126,0.37112105800323186,1.2059738723635673,-0.36096214062571524
1684108185639804400,9.812804443359376,-0.45033911775536833,1.473780174908042,0.1833528263568878
1684108185649821200,9.8228212890625,-0.5726012233335525,1.611947121104598,0.8434300155043601
1684108185659839500,9.832839599609375,0.07024089950509368,1.657964191392064,1.5690098966538906
1684108185669856300,9.842856201171875,1.1845908195298165,1.610218105354905,2.201189609572291
1684108185679874300,9.852874267578125,2.0848072096824644,1.6319693339139223,2.436346857446432
1684108185689891300,9.862891357421875,2.421807459962368,1.7498036861777304,1.9646657495200632
1684108185699909000,9.8729091796875,2.6131834337770936,1.7415964143246412,1.0358563751548528
1684108185709926400,9.882926513671874,2.750041050940752,1.644942797255516,0.2784451854586601
1684108185719944200,9.892944091796876,2.4148048877239225,1.4724223305583,-0.14836451508402823
1684108185729961200,9.902961181640626,1.6152385638654232,1.2893068200886248,-0.15992752710580824
1684108185739979300,9.912979248046875,1.0306874480843544,1.1786433823674916,0.14787527026236055
1684108185749996300,9.922996337890625,0.915589242786169,1.1655676276952027,0.5727893663167953
1684108185760014300,9.933014404296875,0.992576620876789,1.1531880385935307,1.4266127655416727
1684108185770031000,9.943031005859375,0.21333996834158897,0.7909504712045192,2.2359569715708494
1684108185780049400,9.95304931640625,-1.2023311319470404,0.38569267725646494,2.603781983703375
1684108185790066200,9.963066162109374,-1.941109517365694,0.16486732159554957,2.765292980608344
1684108185800083200,9.973083251953126,-1.6444190656423567,0.10532850643396377,2.4115876792430875
1684108185810101200,9.983101318359376,0.0579530072748661,0.49029579202532764,1.553070569244027
1684108185820118300,9.9931181640625,2.9597020385086537,1.4411913259923457,0.5133803150147199
1684108185830136300,10.00313623046875,4.185504062414169,2.2405185803979633,-0.24841888050734995
1684108185840153300,10.0131533203125,2.3937211831629277,2.175727836057544,-0.5077554608702659
1684108185850171400,10.02317138671875,0.006344400590658187,1.661276676940918,0.09242226310968399
1684108185860188200,10.033188232421875,-1.4168471583306788,1.3887585434436798,0.7799310645401477
1684108185870206500,10.04320654296875,-2.006966429632902,1.2692308312654494,0.7961351803660393
1684108185880223200,10.05322314453125,-2.0445196229577065,1.0938368549585342,0.5132873760342598
1684108185890241300,10.0632412109375,-1.8626701869010924,0.9705074124097823,0.2620581142812967
1684108185900258300,10.07325830078125,-1.6474878055632114,0.8857347872704266,0.2537766081482172
1684108185910276000,10.083276123046875,-1.1731786872208119,0.7328098324030637,0.13997136527001858
1684108185920293400,10.09329345703125,-0.1632464789280668,0.5986608896762132,-0.28788872110843655
1684108185930311200,10.103311279296875,0.9564484919190406,0.44082595093548294,-0.396464831161499
1684108185940328400,10.113328369140625,1.3347323542237282,0.11457622725069522,-0.3186228820681572
1684108185950346200,10.12334619140625,0.5724210809936746,-0.008221884900331497,-0.03382686627805233
1684108185960363300,10.13336328125,-0.4572340649008751,0.04686579607129097,0.33798633870780465
1684108185970381300,10.14338134765625,-1.1546329767048358,0.2860053915798664,0.6741413703352213
1684108185980398000,10.153398193359376,-1.4583692552864551,0.6185580148011446,1.0306634826868772
1684108185990416400,10.16341650390625,-1.3624305084884165,0.8603595229953527,1.22215694540143
1684108186000433200,10.17343310546875,-0.9769862530350685,0.9289537512719631,1.1890882040143012
1684108186010450400,10.183450439453125,-0.4782558101415634,0.7854968819737433,0.984545874634385
1684108186020468200,10.19346826171875,0.07765722190989181,0.42611295045018194,0.370492770037055
1684108186030485500,10.203485595703125,0.5031599863061681,0.1463444074332714,-0.1891565441995859
1684108186040503300,10.21350341796875,0.7324222943902016,0.16101649138629437,-0.3668926997184753
1684108186050520000,10.22352001953125,0.6839385417282581,0.41385903355479237,-0.25606208873689174
1684108186060538400,10.233538330078124,0.31193244451880453,0.748048318067193,0.016407529443502426
1684108186070555100,10.24355517578125,-0.012180267137289046,0.9909744463771581,0.3049099985361099
1684108186080573400,10.253573486328126,-0.38873157002832737,1.130182426059246,0.45522097151279445
1684108186090590200,10.263590087890625,-0.6391232484459877,1.1988941432356834,0.5380079757928848
1684108186100608300,10.273608154296875,-0.6498328585088252,1.2496651300519703,0.6414326944321393
1684108186110625300,10.283625244140625,-0.47713703524470324,1.298898239776492,0.7667652934968471
1684108186120643300,10.293643310546875,-0.43026068124677985,1.316710959842801,0.6968406933993101
1684108186130660600,10.30366064453125,-0.5282230793595314,1.407139418786764,0.6299976927042007
1684108186140678700,10.3136787109375,-0.607812748903036,1.502034794011712,0.512835540613532
1684108186150695700,10.32369580078125,-0.6095370884776115,1.5230647225588558,0.371783394369483
1684108186160713700,10.333713623046876,-0.5141407779932021,1.4785551342248915,0.19462766908705234
1684108186170730500,10.34373046875,-0.2891033575952053,1.3176403496474027,-0.002446224108338356
1684108186180748500,10.35374853515625,-0.13494736309554428,0.9807038122534751,-0.303229498103261
1684108186190765600,10.363765625,-0.19686815975653008,0.5505465548485518,-0.5390086772680283
1684108186200782600,10.373782470703125,-0.4239595352759585,0.30895547453463074,-0.353765507119894
1684108186210800600,10.383800537109375,-0.5921299900701269,0.28926994633376596,0.10844050097465514
1684108186220817700,10.393817626953124,-0.6740332337856292,0.34216157856583596,0.5179156203567982
1684108186230835700,10.403835693359374,-0.617740268677473,0.326864640712738,0.8595692494004964
1684108186240852500,10.4138525390625,-0.3601882336437702,0.19375673147141934,1.146616843509674
1684108186250870500,10.42387060546875,0.08012859872579574,-0.07611001073420047,1.2638795333653687
1684108186260887600,10.433887451171875,0.6181961957514286,-0.3664858724832535,1.2753314862281084
1684108186270905600,10.443905517578125,0.9592541969895362,-0.6048334408313035,1.2549714197665451
1684108186280922600,10.453922607421875,0.8665688990294933,-0.7441010417461394,1.3536667717963455
1684108186290940400,10.4639404296875,0.5503226829648018,-0.8278530916661023,1.534991307196021
1684108186300957700,10.473957763671875,0.34544892967343327,-0.7683809119999409,1.9085773670732973
1684108186310975500,10.4839755859375,0.2797872477173805,-0.6944061597287654,2.345212880581617
1684108186320992500,10.493992431640624,0.2913806548774242,-0.7765355768829584,2.5064661033332345
1684108186331010600,10.504010498046876,0.1017781022096984,-0.9831254864424467,2.305087206420302
1684108186341027600,10.514027587890626,-0.25408698927164075,-1.068583171236515,1.933736942771077
1684108186351045600,10.524045654296875,-0.2693395034611225,-0.8159025416314601,1.5345546693444252
1684108186361062400,10.5340625,0.16125791719304397,-0.23788521153330802,1.1540285810709
1684108186371080700,10.544080810546875,0.7955576727390289,0.348521176725626,0.7966852154642343
1684108186381097500,10.554097412109375,1.3188883038818835,0.7790940291941165,0.4774491699337959
1684108186391115800,10.56411572265625,1.4116799848258494,1.0171429068565367,0.05045826760530472
1684108186401132500,10.574132568359374,0.9803121825873852,1.0603875898212194,-0.4841191492170095
1684108186411149600,10.584149658203126,0.23279636396169662,0.9496762213051319,-1.0463508811622857
1684108186421167600,10.594167724609376,-0.3496013366451487,0.9007371260911226,-1.119902439585328
1684108186431184600,10.6041845703125,-0.7039771211504936,0.9764876558631658,-0.7701976060330867
1684108186441202700,10.61420263671875,-0.8485714700460434,0.9931932914704084,-0.6320727454125881
1684108186451219500,10.624219482421875,-0.7574878351289779,0.9249287335395813,-0.6212170048773288
1684108186461237800,10.63423779296875,-0.5892074171543121,0.878516526454687,-0.5581225430607796
1684108186471254500,10.644254638671875,-0.3537783666014671,0.8038485312223433,-0.39933015746474265
1684108186481272600,10.6542724609375,-0.06996259402036667,0.6274485927432775,0.01096270804107189
1684108186491289600,10.66428955078125,0.10841832567546517,0.4036106112629175,0.4539952291101217
1684108186501307400,10.674307373046876,0.001975665720831603,0.16954291219115256,0.727341045603156
1684108186511324700,10.68432470703125,-0.27573300389051436,-0.07885726361572742,0.8419125966787337
1684108186521342500,10.694342529296875,-0.5409574732482433,-0.1901853027254343,0.7794763065099716
1684108186531359700,10.70435986328125,-0.5901964647242799,-0.1747439879655838,0.6264981601506471
1684108186541377500,10.71437744140625,-0.34590368770360946,-0.09937456646561622,0.4438572814553976
1684108186551394600,10.72439453125,0.001267243456840515,-0.014064765709638594,0.28918285257220266
1684108186561412600,10.73441259765625,0.2561480499872938,-0.0048036008894443505,0.23287176728546619
1684108186571429400,10.744429443359374,0.4000327527761459,-0.03350830184817314,0.23036299933493137
1684108186581447700,10.75444775390625,0.4321919415703043,-0.02605564775466919,0.23689444693028924
1684108186591464400,10.76446435546875,0.48862405942082404,0.01914133832156658,0.3043050183802843
1684108186601482800,10.774482666015626,0.49505847638249395,0.09069500092566013,0.346546077260375
1684108186611499500,10.78449951171875,0.4878139120817184,0.16586159332990646,0.25348200911581514
1684108186621516500,10.7945166015625,0.4043663980662823,0.22999767315387726,0.1087736784517765
1684108186631534600,10.80453466796875,0.21308274217750875,0.13319734109044074,0.06142039112448692
1684108186641551600,10.814551513671875,0.12903086906075475,0.020586860954761504,0.1469149007976055
1684108186651569700,10.824569580078125,0.1929109100307338,0.07916589117348194,0.30477672754526136
1684108186661586400,10.83458642578125,0.2879950858260505,0.1782850215733051,0.39560441493988036
1684108186671604700,10.844604736328124,0.3538753972351551,0.20681787309646604,0.3025613895833492
1684108186681621500,10.85462158203125,0.4296388230213895,0.21764614110291003,0.2506190209001303
1684108186691639600,10.8646396484375,0.40974403598401693,0.23363632191717623,0.25436054551601406
1684108186701656600,10.874656494140625,0.24378190488908438,0.17558511496484278,0.2939215715318918
1684108186711674400,10.88467431640625,0.05588378151906654,-0.1022381392031908,0.3367313702106476
1684108186721691600,10.894691650390625,-0.15284662893414497,-0.4023421987622976,0.3995791637897491
1684108186731709400,10.90470947265625,-0.42758357099201527,-0.47536593391895293,0.4757411969721317
1684108186741726700,10.914726806640624,-0.5420820568313822,-0.31986499108374117,0.3767103293776512
1684108186751744500,10.92474462890625,-0.4296002080440521,-0.06177110425829887,0.02258651033937931
1684108186761761800,10.93476171875,-0.29589082577824594,0.14204057275950907,-0.3105687549501657
1684108186771779600,10.944779541015626,-0.16334464207291602,0.24876024129092691,-0.5626479115307331
1684108186781796400,10.95479638671875,-0.09433366795526817,0.3095207072019577,-0.7368243287414312
1684108186791814700,10.964814697265625,-0.16609657112956047,0.26814707880616184,-0.8744652052372693
1684108186801831400,10.97483154296875,-0.2542459792256355,0.16632921084165572,-0.904858005413413
1684108186811849500,10.984849365234375,-0.37104393764641136,0.13199965573847294,-0.9617553661555052
1684108186821866500,10.994866455078125,-0.5125695831537247,0.18140753750801086,-0.8922954609602689
1684108186831883800,11.0048837890625,-0.6257704303979873,0.27588673314750195,-0.8085732216566801
1684108186841901600,11.014901611328124,-0.5741232452690601,0.4515244550824165,-0.813845609101653
1684108186851918300,11.02491845703125,-0.4506827435612678,0.6469827297747135,-0.6793821935981512
1684108186861936600,11.0349365234375,-0.29142157140970226,0.7927642426282167,-0.5204787488430738
1684108186871953400,11.044953369140625,-0.050129784569609905,0.8729121305763721,-0.4224328006327152
1684108186881971700,11.0549716796875,0.2617395133187994,0.8286275831699371,-0.3672235391080379
1684108186891988500,11.064988525390625,0.5407820436161012,0.71345806620121,-0.489884873136878
1684108186902006500,11.075006591796875,0.6972106957554817,0.4838526072353124,-0.8220750927865504
1684108186912023600,11.0850234375,0.678151775020361,0.17980127135515211,-1.2167916189759969
1684108186922041600,11.09504150390625,0.5093383461475371,-0.0014724106401205062,-1.1445727704614401
1684108186932058600,11.10505859375,0.2981365588784218,-0.1278787764161825,-0.7719891656249761
1684108186942076700,11.11507666015625,0.0449473952293396,-0.3746545658916235,-0.396250311627984
1684108186952093700,11.12509375,-0.24298459876524284,-0.6447907726883888,-0.04855214172303676
1684108186962111500,11.135111572265625,-0.44120998181700705,-0.9693810387283563,0.14167115492522717
1684108186972128500,11.14512841796875,-0.5095885215163231,-1.2378560343146323,0.2074304520368576
1684108186982146600,11.155146484375,-0.4619289447188377,-1.3989683872908354,0.18987725968956945
1684108186992163600,11.16516357421875,-0.3192179984170943,-1.4000725491404533,0.11755962697565554
1684108187002181600,11.175181640625,-0.09389872887041419,-1.2475754642963408,-0.06024608664810657
1684108187012198400,11.185198486328124,0.2759364175081253,-1.0127274285018444,-0.08364975858926772
1684108187022216400,11.195216552734376,0.6301134280383587,-0.7242074237525463,-0.07894026572406292
1684108187032233500,11.2052333984375,0.7052373503446578,-0.5151736281722784,-0.1133481467604637
1684108187042250800,11.215250732421875,0.46198272073268887,-0.3966992244392633,-0.028880057525634766
1684108187052268500,11.2252685546875,0.07404018219020217,-0.42925475560724735,0.10322598119676113
1684108187062285600,11.23528564453125,-0.2769137381076813,-0.6068184771686792,0.13448095116019249
1684108187072303600,11.2453037109375,-0.4929658514847979,-0.7308990303456783,0.0710673403918743
1684108187082320400,11.2553203125,-0.5805366194427013,-0.8255109124541282,-0.020796119791269302
1684108187092338700,11.265338623046874,-0.4069336547384038,-0.7999392488241195,-0.26977906392216683
1684108187102355500,11.27535546875,-0.004208575872052461,-0.6193325063049793,-0.5832715973645448
1684108187112373500,11.28537353515625,0.44611528951525686,-0.38896424627304077,-0.9237047447025776
1684108187122390500,11.295390625,0.7850783643007277,-0.2582014388531446,-1.2163970667004584
1684108187132408000,11.305407958984375,1.0245955609500408,-0.26344927637875076,-1.4197025477617977
1684108187142425300,11.31542529296875,0.9373568379580974,-0.3800859432905912,-1.470441385874152
1684108187152443100,11.325443115234375,0.4681809908509254,-0.49841713916063307,-1.24828565839231
1684108187162460200,11.335460205078125,-0.10017307816585526,-0.7509452085524797,-0.8673486512303352
1684108187172478200,11.345478271484374,-0.42865678971409793,-1.0918763685405253,-0.44992052701711654
1684108187182495200,11.3554951171875,-0.5983773965597152,-1.3670464778512716,-0.007559621599316596
1684108187192513300,11.36551318359375,-0.6138754099428654,-1.5017647448986768,0.390008202368021
1684108187202530000,11.375530029296876,-0.5281038368940353,-1.598420115533471,0.5638999574184418
1684108187212548400,11.38554833984375,-0.48843003468606616,-1.6980758370280264,0.48467619857788086
1684108187222565000,11.395565185546875,-0.3811924432277679,-1.8503607404261826,0.23909108019173145
1684108187232583200,11.405583251953125,-0.15822306127548216,-1.8262018662035464,-0.041054479444026945
1684108187242600200,11.41560009765625,0.3007867811262607,-1.463484990864992,-0.2742015565395355
1684108187252618000,11.425617919921875,0.9042565323889254,-0.809845141288638,-0.5552981332898139
1684108187262635300,11.43563525390625,1.13685182082057,-0.3021042934656143,-0.8166606665223837
1684108187272653000,11.445653076171874,0.924022724610567,-0.03896364464461803,-0.9805413151681422
1684108187282670300,11.45567041015625,0.4679565344452858,0.003911035963892936,-1.2524720041662454
1684108187292687000,11.46568701171875,0.0604582680940628,-0.17459727297127245,-1.7413906626194715
1684108187302705400,11.475705322265625,-0.12078680886123329,-0.4069868096977472,-2.2363684749811887
1684108187312722200,11.48572216796875,-0.16813542001340537,-0.6028513271033763,-2.4587831456601617
1684108187322740000,11.495739990234375,-0.17839958786368368,-0.6690408323258161,-2.609695007139444
1684108187332757200,11.50575732421875,-0.23710898473011327,-0.5374474193006754,-2.4441157378822562
1684108187342775000,11.515775146484375,-0.40448918419573454,-0.34527123501896856,-1.9918594613939522
1684108187352792300,11.525792236328124,-0.5852700777053833,-0.4315378981083631,-1.7768302247911691
1684108187362810000,11.53581005859375,-0.6058686290979385,-0.8179238183259964,-1.8950451008051632
1684108187372827400,11.545827392578126,-0.5633469997107983,-1.2024690791130066,-2.1257921310216186
1684108187382845200,11.55584521484375,-0.5341010680148378,-1.3822685969024895,-1.8556933336257933
1684108187392862200,11.5658623046875,-0.5657821544358507,-1.374951551887393,-1.3170511515825987
1684108187402880300,11.57588037109375,-0.786965200960636,-1.3456488850355148,-0.9686310971438884
1684108187412897000,11.58589697265625,-1.0787503449857234,-1.3536813848435878,-0.7677747628003359
1684108187422915300,11.595915283203125,-1.315362467843294,-1.5314116951435803,-0.9500082297384739
1684108187432932000,11.60593212890625,-1.4066718012750148,-1.841560763376951,-1.4799036262243985
1684108187442950100,11.6159501953125,-1.3214917643785475,-2.047808143109083,-1.9325912798672913
1684108187452967200,11.62596728515625,-0.9869242942035198,-2.0515473296374083,-2.3681787456274033
1684108187462985200,11.635985107421876,-0.47397944799661634,-1.7505623955905436,-2.775034037899971
1684108187473002200,11.646002197265625,0.0855026564469561,-1.1209347052425145,-2.6381588850796223
1684108187483020300,11.656020263671875,0.4792600187480449,-0.3723661626935005,-2.2154314854145047
1684108187493037300,11.666037353515625,0.5915372848739847,0.21460896536409854,-1.6836989366292952
1684108187503054000,11.67605419921875,0.47912440966963765,0.516422166928649,-1.2970716088712215
1684108187513072000,11.686072021484375,0.4450234026253223,0.5732067149460315,-1.1528484313756227
1684108187523089200,11.696089111328124,0.4958066644012928,0.26749533689916133,-1.163392621743679
1684108187533107200,11.706107177734374,0.5144201794564723,-0.28790742580890655,-1.3751853606432676
1684108187543124200,11.716124267578126,0.5225251599788665,-0.7012678621917963,-1.539378143978119
1684108187553142300,11.726142333984376,0.5217781410038471,-0.9064221859902143,-1.3778805910766123
1684108187563159300,11.7361591796875,0.36791093685030934,-0.9752239195376634,-1.0504729295283555
1684108187573177000,11.746177001953125,-0.00865443109869957,-1.1142033511608838,-0.776976306387782
1684108187583194400,11.7561943359375,-0.4460380960932001,-1.313904085728526,-0.6121382108867168
1684108187593212200,11.766212158203125,-0.7783259674310684,-1.553897083196044,-0.48913083989918227
1684108187603229200,11.776229248046874,-0.9942834247946739,-1.7608447201520203,-0.4734978019595146
1684108187613247200,11.786247314453124,-1.0000175845324992,-1.917864250856638,-0.6381430052369833
1684108187623264000,11.796263916015626,-0.7397334941864013,-2.0683932504981755,-0.970869815981388
1684108187633282300,11.8062822265625,-0.24759879629611967,-2.031817962294817,-1.2284183438837528
1684108187643299000,11.816299072265625,0.3236241244215518,-1.6722130814969538,-1.237770694118738
1684108187653317000,11.826317138671875,0.7826455841958523,-1.119789042338729,-1.1190700804144142
1684108187663334100,11.836334228515625,1.0195336013853549,-0.7086153023451566,-0.9692460141718388
1684108187673352200,11.846352294921875,0.9820236626803874,-0.42529871145784853,-0.8262509171664715
1684108187683369200,11.856369140625,0.8004127115547657,-0.32977439067959785,-0.6648164926290512
1684108187693387300,11.86638720703125,0.6146563311874866,-0.4020587056457996,-0.5732762730509042
1684108187703404300,11.876404296875,0.461450769280456,-0.7150748537480831,-0.6341027899354695
1684108187713422300,11.88642236328125,0.3302595438480377,-1.083268114671111,-0.6803390559315681
1684108187723439000,11.896439208984376,0.13971592920422554,-1.3561200101673603,-0.5673959828406572
1684108187733457200,11.90645703125,-0.09032971127722411,-1.5432260515779257,-0.4088397440880537
1684108187743474200,11.91647412109375,-0.18003160951230673,-1.6359873373836278,-0.24248949045836923
1684108187753491200,11.9264912109375,-0.10346267602946609,-1.6201082157284021,-0.09086275870800017
1684108187763509200,11.93650927734375,0.12254848477151244,-1.5142384420245885,0.005009352594614029
1684108187773526300,11.9465263671875,0.44024438818786293,-1.3090133910775184,0.01971475429534912
1684108187783544300,11.95654443359375,0.667709949048236,-1.037961823001504,-0.016967501413822174
1684108187793561300,11.966561279296876,0.6934907984495162,-0.8360551028221845,-0.038485505738854404
1684108187803579100,11.9765791015625,0.5069301159620285,-0.8060673763155937,-0.1935486416786909
1684108187813596200,11.98659619140625,0.247145243842341,-0.8679320040762424,-0.3712935650259256
1684108187823614200,11.9966142578125,0.0831236523559317,-0.8256915297180414,-0.45503918520510195
1684108187833631200,12.00663134765625,0.026121114206314085,-0.6493342613369226,-0.3792711197763681
1684108187843649000,12.01664892578125,0.06145195530653,-0.40283553523719307,-0.2262958960264921
1684108187853666300,12.026666259765625,0.1102022134175524,-0.11396131022274493,-0.02930734302699566
1684108187863684000,12.03668408203125,0.23537406896259636,0.05461772537231445,0.03478489765524864
1684108187873701000,12.046701171875,0.2564683314502239,0.019330723413825034,-0.1600263113051653
1684108187883719200,12.05671923828125,0.170834742099978,-0.11880173599123954,-0.44959670189023015
1684108187893736200,12.066736083984376,0.16887308663818984,-0.19635726935863493,-0.6142196933358908
1684108187903754200,12.076754150390625,0.23283841300513594,-0.15129706140458582,-0.6280149944543838
1684108187913771300,12.086771240234375,0.3281599777529016,-0.030411504876613614,-0.5065379017740488
1684108187923789300,12.096789306640625,0.4136369152367115,0.0471691629320383,-0.25899405053555963
1684108187933806000,12.10680615234375,0.5910217730998992,-0.046887423381209374,-0.08935176962316035
1684108187943824400,12.116824462890625,0.5511539096245542,-0.3868669817328453,-0.17470190238952635
1684108187953841200,12.126841064453124,0.2542237308612093,-0.847768336969614,-0.3914233298629522
1684108187963859200,12.136859130859374,-0.15585929128620774,-1.1785831766128538,-0.5338888500362634
1684108187973876200,12.146876220703126,-0.45195236163828517,-1.2839087604373693,-0.476775800716877
1684108187983894000,12.15689404296875,-0.6181342364311218,-1.087016653549671,-0.15638590897619722
1684108187993911300,12.166911376953125,-0.5602361376812681,-0.6066495503425597,0.2238350588709116
1684108188003928000,12.176927978515625,-0.2719744916072115,-0.09837211142480373,0.43580783051252364
1684108188013946400,12.1869462890625,-0.011001871007680892,0.24606968703269957,0.3859744168072939
1684108188023963100,12.196963134765625,0.034783765144087375,0.4125555497407913,0.22720190495550632
1684108188033981200,12.206981201171875,-0.0125134446144104,0.4157797724843025,0.022695231410861015
1684108188043998200,12.216998291015624,-0.09465984943602233,0.35782091999053955,-0.1802683043450117
1684108188054016000,12.22701611328125,-0.06454290705919265,0.2885673510223627,-0.37871991563439367
1684108188064033300,12.237033203125,-0.012955343163013458,0.26204876193106175,-0.5076911634624004
1684108188074051000,12.247051025390626,-0.0635211262634024,0.30306641649603844,-0.5714361981421708
1684108188084068400,12.257068359375,-0.2229541843831539,0.35514439425766464,-0.6702332569807767
1684108188094086100,12.267086181640625,-0.4174257495930418,0.3729810797214508,-0.8056009278476238
1684108188104103200,12.277103271484375,-0.5126421004006639,0.375617857965827,-0.9071697894871235
1684108188114121200,12.287121337890625,-0.4713409161865711,0.4009568818837404,-0.8990992957562207
1684108188124138200,12.29713818359375,-0.30700141785740853,0.4761638062983751,-0.6211725812137127
1684108188134156000,12.307156005859374,-0.12743749892208725,0.5229284800827503,-0.12212766554355621
1684108188144173000,12.317173095703126,-0.02774137235190719,0.5853460655510425,0.4380611623972654
1684108188154191000,12.327191162109376,-0.11388594343159347,0.5578787974327802,0.9053519264101981
1684108188164208000,12.3372080078125,-0.4126081567108631,0.413525856077671,1.1367986293286085
1684108188174226000,12.347225830078125,-0.633234774929285,0.10921440795660019,0.9881950447916984
1684108188184243000,12.357242919921875,-0.5718704613735899,-0.21581366497874258,0.5216483771443367
1684108188194261000,12.367260986328125,-0.13560560780856756,-0.41746787170171734,0.09838146377503872
1684108188204278000,12.377278076171875,0.470046784722805,-0.39974867513775825,-0.07264262688457965
1684108188214296000,12.387296142578125,0.8073708601295948,-0.13221943596899507,-0.00511865818798542
1684108188224313000,12.39731298828125,0.6227051976084709,0.2829536027938127,0.3222065857738256
1684108188234331100,12.4073310546875,0.11637713919281958,0.5849661263227462,0.6568745937138796
1684108188244348200,12.41734814453125,-0.2947662056624889,0.771084910261631,0.8876116870582104
1684108188254365000,12.427364990234375,-0.526526796835661,0.7825052989423275,0.8281471061766147
1684108188264383000,12.437383056640625,-0.44230307428333904,0.6138204648852348,0.4203004647791385
1684108188274401000,12.447401123046875,-0.02672905350420624,0.3240507523357868,0.027240473625063894
1684108188284418000,12.45741796875,0.5478805870423094,0.1295826577246189,-0.06827449480295181
1684108188294435000,12.46743505859375,0.9245873727560043,0.11517068601250648,0.07329962948858737
1684108188304453000,12.477453125,0.8558592889666556,0.1877536916643381,0.3117676093459129
1684108188314470100,12.48747021484375,0.4690869632473215,0.2639373521566391,0.4288292236715555
1684108188324488200,12.49748828125,0.04877016838788986,0.27309739468991756,0.42143385272324085
1684108188334505000,12.5075048828125,-0.2270329415967688,0.13929273535609243,0.3519523202180862
1684108188344523000,12.51752294921875,-0.3888087634503841,-0.00006254384219646453,0.20125848540365696
1684108188354540000,12.5275400390625,-0.46008423016760497,0.04754325694143772,0.13729659310281275
1684108188364558000,12.53755810546875,-0.39977793776486065,0.29811025539338587,0.22991876269876957
1684108188374575000,12.5475751953125,-0.20434417645931244,0.6059685823410749,0.40688393384516236
1684108188384593000,12.557593017578125,0.0666892714381218,0.8591805423438549,0.5790437505364417
1684108188394610200,12.567610107421874,0.3084428488373756,0.9620505497097969,0.64478843460083
1684108188404628000,12.5776279296875,0.5294201801896095,0.8700865517616272,0.5116974764943123
1684108188414645000,12.58764501953125,0.7249871759533881,0.5979495265364646,0.19817863956689832
1684108188424663000,12.5976630859375,0.7311129653573035,0.2840484122931957,-0.09770400290489197
