time,seconds_elapsed,z,y,x
1684167988813836000,0.0158359375,0.6663029317945242,0.009689034843444824,0.3637114393338561
1684167988823855000,0.025855224609375,0.6618444910809397,0.021675240713357923,0.3426246660329401
1684167988833873200,0.035873046875,0.632002018263936,-0.06149754801392555,0.2507375327132642
1684167988843892200,0.045892333984375,0.44723464893400666,-0.09431845211982727,0.1691051052957773
1684167988853910300,0.05591015625,0.2318815872043371,-0.08848843079209327,0.09935001654624938
1684167988863929000,0.06592919921875,0.07029401793181896,-0.04747194527089595,0.012117431034147738
1684167988873947100,0.075947021484375,-0.043595980620384216,0.009981295788288116,-0.07234028293713927
1684167988883966200,0.08596630859375,-0.0953542249083519,0.036033436411619185,-0.10895093471482395
1684167988893984000,0.09598388671875,-0.06489478923678398,0.0629419016033411,-0.10624050671234726
1684167988904003000,0.106003173828125,0.03513151913583278,0.11817805113494395,-0.05779825510457158
1684167988914021000,0.116021240234375,0.23436375940889118,-0.022761866906285285,-0.0949776466809213
1684167988924040200,0.126040283203125,0.359315834723413,-0.2507861941605806,-0.15138766229748726
1684167988934058200,0.136058349609375,0.3335971638381481,-0.3144873896986246,-0.13640622013434767
1684167988944076000,0.146075927734375,0.3247203221604228,-0.3724795599400997,-0.12659545860737562
1684167988954095000,0.15609521484375,0.30643033997118474,-0.4107388557076454,-0.1357340199612081
1684167988964113000,0.16611279296875,0.30159692846536634,-0.3848322610348463,-0.15929492829069494
1684167988974132000,0.176132080078125,0.3140793934196234,-0.31173078446686264,-0.17544307614564894
1684167988984150300,0.186150390625,0.2848065371841192,-0.22262860569059847,-0.1875742434442043
1684167988994169000,0.196169189453125,0.23830665181577204,-0.12914485082924365,-0.1744502657160163
1684167989004187100,0.206187255859375,0.22858137661516664,-0.10887596978247165,-0.16328969701528548
1684167989014206200,0.216206298828125,0.2855067944079637,-0.11845745259821414,-0.1756830223813653
1684167989024224000,0.22622412109375,0.3609136253088712,-0.16741291442513465,-0.1838227819561958
1684167989034243000,0.2362431640625,0.4865753101974725,-0.2109019275397062,-0.19094459666013716
1684167989044261000,0.24626123046875,0.5108329686194658,-0.17283669303953647,-0.08989332915395498
1684167989054280000,0.256280029296875,0.3981938469111919,-0.000315057298541069,0.03799070795923471
1684167989064298200,0.26629833984375,0.16026801110655067,0.23546587543189523,0.1335135674327612
1684167989074317300,0.2763173828125,-0.05162058938294649,0.38915538493096824,0.14198825805038212
1684167989084335000,0.286335205078125,-0.12418021415919064,0.3612742753148079,-0.0024871406406164168
1684167989094354200,0.296354248046875,-0.09804361012279987,0.19032383441329,-0.26205080775767564
1684167989104372000,0.3063720703125,-0.033173370805382726,0.009935703080892562,-0.4821192075714469
1684167989114391000,0.31639111328125,-0.007469020706415176,-0.120947515848279,-0.5837649338394403
1684167989124409000,0.3264091796875,0.07023322765529155,-0.1637812799245119,-0.5974091360494495
1684167989134428000,0.336427978515625,0.23607027106583117,-0.16297639328241348,-0.5200058706343174
1684167989144446200,0.3464462890625,0.4509007702261209,-0.19882395173311232,-0.5286459809467197
1684167989154465300,0.35646533203125,0.6442864764280617,-0.26715748324692246,-0.5485144644990563
1684167989164483000,0.366483154296875,0.7070242337614298,-0.4063526034474373,-0.6031298517838121
1684167989174502100,0.376502197265625,0.6447640308119357,-0.5662310307145119,-0.5659823166504502
1684167989184520000,0.38652001953125,0.5025849263645709,-0.657720396888256,-0.4065378968864679
1684167989194539000,0.3965390625,0.43408875163495536,-0.6558259614437818,-0.1840305794879794
1684167989204557000,0.40655712890625,0.3283475727468729,-0.4995131177037954,0.1467487504504621
1684167989214576000,0.416576171875,0.24434520132765172,-0.30633214029371736,0.4967188108101487
1684167989224594200,0.42659423828125,0.22495682944245635,-0.09678221188485622,0.8738723539106548
1684167989234612200,0.4366123046875,0.23558219528794289,0.11615092922151088,1.2094500240415333
1684167989244631000,0.446631103515625,0.2724760479211807,0.29669863502979277,1.4784683327242731
1684167989254649000,0.456649169921875,0.31511224359869955,0.45069852565228935,1.6947198045983909
1684167989264668200,0.466668212890625,0.3435568323165178,0.5104904387921094,1.8006898238062858
1684167989274686200,0.476686279296875,0.4088386115768924,0.4289724315345287,1.8029509006060658
1684167989284705300,0.486705322265625,0.4400708217192441,0.20109598831832406,1.7546313985951243
1684167989294723000,0.49672314453125,0.4390086723804474,-0.06996727019548415,1.6421191181369126
1684167989304742100,0.5067421875,0.38735739559829235,-0.3305646642744541,1.3962483146771787
1684167989314760200,0.51676025390625,0.26169337262213227,-0.5363754061549901,1.0207583208747208
1684167989324779000,0.526779052734375,0.0728671198228374,-0.9039864832758903,0.26600685190707446
1684167989334797000,0.536797119140625,-0.17951544015109538,-1.5808979028463364,-0.8234443353131413
1684167989344816000,0.546816162109375,-3.4027935962885616,-1.517999255862832,-1.2133765498355031
1684167989354834200,0.556834228515625,-7.469695244675874,-0.338299057918787,-0.7766678249604999
1684167989364853200,0.566853271484375,-4.820390111681819,-0.3409253147691488,0.19554931397661565
1684167989374871000,0.57687109375,-2.6428502577662467,-0.5027881938517094,0.9509579316787421
1684167989384890000,0.58689013671875,-1.222071020683646,-0.42126901755034923,1.427408592094481
1684167989394908200,0.596908203125,0.00458338226750493,-0.11457681177258491,1.6630762737087905
1684167989404927000,0.606927001953125,0.5484499478954822,0.3895762406915426,1.6624575572885572
1684167989414945000,0.616945068359375,0.9486441017784177,0.7420867793142795,1.2624984542705118
1684167989424964000,0.626964111328125,1.1983389935709536,0.943235959124565,0.7907131553173065
1684167989434982100,0.636982177734375,1.0615537109911442,0.9835521874219179,0.1492513809211552
1684167989445001200,0.647001220703125,0.27494872164502737,0.9801508545458316,-0.4122780479736626
1684167989455019000,0.65701904296875,-0.6461234825968742,1.0777905600428581,-0.6885149097330868
1684167989465038000,0.6670380859375,-0.4672919330567121,1.0287158557504414,-0.18264687004461883
1684167989475056000,0.67705615234375,0.9752435010209679,0.5109235695123672,0.3410892731592059
1684167989485075000,0.687074951171875,2.1400421901702877,-0.3363344798475504,0.031416298004984855
1684167989495093000,0.697093017578125,2.733198344950378,-1.1834937450081109,-0.803000682221353
1684167989505112000,0.707112060546875,2.6037860753566027,-1.3703157087802886,-1.4790668831393121
1684167989515130000,0.717130126953125,1.2976532081514596,-0.7902858698159456,-2.140197088471055
1684167989525148200,0.727148193359375,-1.0711825400799513,0.2619511467754841,-2.7848391003385187
1684167989535167200,0.737167236328125,-3.6827170376062393,1.303745679807663,-3.215983030693233
1684167989545185000,0.74718505859375,-5.005390120723844,1.9958599292069672,-3.3768107215091585
1684167989555204000,0.7572041015625,-4.59536467398256,2.2462258521288634,-3.2496544141486283
1684167989565222100,0.76722216796875,-3.292265183123946,2.091300078833103,-3.1361089912503957
1684167989575241200,0.7772412109375,-2.1557132220327855,1.4935270779073238,-3.1999788213536142
1684167989585259300,0.78725927734375,-1.527087694464624,0.5947124443113804,-3.2907609160408375
1684167989595278000,0.797278076171875,-1.1404755642756819,-0.13033084574341774,-3.383611341434717
1684167989605296000,0.807296142578125,-1.1088783567458391,-0.5604951174110174,-3.3495652794480324
1684167989615316000,0.81731591796875,-1.0698355093851686,-0.8805483245432376,-2.7587735157117246
1684167989625333800,0.827333740234375,-0.6803986771643161,-1.0132038138419388,-2.0714877093821764
1684167989635352800,0.837352783203125,-0.05474748923182487,-1.05266547113657,-1.5856404211983084
1684167989645371000,0.847370849609375,0.467674502633512,-0.8269950135320424,-1.3313608319640158
1684167989655389700,0.8573896484375,0.8198165002048015,-0.33753625685274596,-1.012451826430857
1684167989665408000,0.867407958984375,0.7430021405935288,0.28750644379258156,-0.5996390870586037
1684167989675427000,0.877427001953125,0.3015776392430067,0.775116942256689,-0.14542027832567692
1684167989685444900,0.88744482421875,-0.19465747970342634,0.7211912908017635,0.3533639405816793
1684167989695464000,0.8974638671875,-0.6569029430255293,0.07013795058727264,0.9707768770009279
1684167989705481700,0.907481689453125,-1.06566465344131,-0.7137491581022739,1.649144632859528
1684167989715500800,0.917500732421875,-1.3512372065618634,-1.3645014695435762,2.264726554459333
1684167989725518800,0.927518798828125,-1.0599003908261657,-1.7061013225734234,2.4948414242520927
1684167989735537700,0.93753759765625,-0.24550445436537263,-1.902979400935769,2.3296841797992585
1684167989745556000,0.947555908203125,0.5719929552420974,-2.2054951978117225,1.655267499653995
1684167989755575000,0.957574951171875,1.1896478837236761,-2.6002935570657253,0.4859431497737765
1684167989765592800,0.9675927734375,1.5629837682321668,-2.94913388274312,-0.6464917313873767
1684167989775612000,0.97761181640625,1.7622136704176663,-3.3011575146317482,-1.7080521643802522
1684167989785629700,0.987629638671875,1.8978680492714046,-3.533710717487335,-2.723489144101739
1684167989795648800,0.997648681640625,2.0067405119225383,-3.4331168383598327,-3.33211262486577
1684167989805666800,1.007666748046875,2.071771787020564,-2.8852450556784865,-3.370129928570986
1684167989815685600,1.017685546875,1.8194804489940404,-1.9860475602447984,-3.0164062147662043
1684167989825704000,1.027703857421875,1.3814876756578682,-0.8826356522113085,-2.5472519949689505
1684167989835722000,1.037721923828125,1.1863640397474169,0.17491934453248978,-2.344340773922205
1684167989845740800,1.04774072265625,1.2479822915315628,0.7911836954385042,-2.38196703248322
1684167989855758800,1.0577587890625,1.5605249769032001,0.7496101605564356,-2.482686583817005
1684167989865778000,1.06777783203125,2.250237425857782,0.12867314166426658,-2.444492754501104
1684167989875796000,1.0777958984375,3.1361797183990476,-0.6779810946285725,-2.279811310866475
1684167989885814800,1.087814697265625,3.8234260695010422,-1.2506237459510563,-2.2067282467380163
1684167989895832800,1.097832763671875,4.271491908562183,-1.6362620626717805,-2.167765771137178
1684167989905852000,1.107851806640625,4.5527959905833,-1.7815660211414097,-1.9308657712489365
1684167989915870000,1.117869873046875,4.767595217822492,-1.7102099269360302,-1.6242884240224957
1684167989925888800,1.127888671875,4.816467093019187,-1.499953311562538,-1.2382105468407272
1684167989935906800,1.13790673828125,4.7725534247517585,-1.2340087112367153,-0.7367045017540454
1684167989945926000,1.14792578125,4.662546405112743,-0.9682552495688199,-0.21453210073560475
1684167989955944000,1.15794384765625,4.231870092269778,-0.7054442710936069,0.2831312974482775
1684167989965963000,1.167962890625,3.577458089277148,-0.3500315812885761,0.8163976316720247
1684167989975980800,1.177980712890625,2.7443720653936263,0.014084639453887939,1.4185752972975372
1684167989986000000,1.187999755859375,1.6088510547854005,0.3411649687439203,1.9096949729263781
1684167989996018000,1.198017822265625,0.5308163107231259,0.6029127019017935,2.1689698862299323
1684167990006036700,1.20803662109375,0.06861775528267025,0.7940233027786016,2.0899638617932794
1684167990016054800,1.2180546875,0.20843641420900821,0.9359586615979671,1.8470812803640961
1684167990026073900,1.228073974609375,0.6903203517198562,1.2135627200573682,1.689810989768803
1684167990036092000,1.238091796875,1.30270698440969,1.7149147436261176,1.712778608380258
1684167990046111000,1.248111083984375,1.8430600620239972,2.3086036901086566,1.8523516219824552
1684167990056129000,1.25812890625,2.085285933110118,2.795253819108009,1.944043232730031
1684167990066147800,1.26814794921875,1.882013185274601,3.1565029599815606,1.8768799140393733
1684167990076166000,1.278165771484375,1.436768833374977,3.3272137469083067,1.642490143406391
1684167990086185000,1.28818505859375,0.87024904884696,3.244883254224062,1.2589262948721647
1684167990096202800,1.29820263671875,0.1967512371122837,3.003970219302177,0.9092030488803983
1684167990106221800,1.308221923828125,-0.48830498353429136,2.648732886064052,0.6467500900626182
1684167990116240000,1.318239990234375,-0.9028434507206082,2.3681816682368515,0.5651598943516611
1684167990126258000,1.3282578125,-1.1335901886761188,2.2709791851133105,0.514502889303863
1684167990136277000,1.338277099609375,-1.3339172384485602,2.3422709819108247,0.4733662845343351
1684167990146294800,1.348294677734375,-1.7560056095577776,2.584678639304638,0.3402035763658583
1684167990156313900,1.35831396484375,-2.8814523853972553,2.8737714755058286,0.031908319305628534
1684167990166331600,1.36833154296875,-4.143640896935761,3.2835382713109253,-0.4659180143550038
1684167990176350700,1.378350830078125,-4.389904645235836,3.6329864997535943,-0.7895296446211636
1684167990186369000,1.388369140625,-2.8099641892448064,3.7786949473708864,-0.4759866961658001
1684167990196387800,1.398387939453125,-0.7735054154068232,3.7138352294474837,0.09583104863986372
1684167990206406000,1.408406005859375,0.18543430880606174,3.3537504561781883,0.19513065017312764
1684167990216425000,1.418425048828125,0.20588906781375407,2.794765743330121,0.01736848343014717
1684167990226442800,1.42844287109375,-0.23390724781304598,2.1554612930983303,0.053555356837809084
1684167990236461800,1.4384619140625,-1.1422878743946552,1.7272113306194543,0.15138094029575586
1684167990246480000,1.44847998046875,-2.153758873094618,1.3728519492596387,0.09090221393555402
1684167990256498700,1.458498779296875,-3.7613410769879816,1.1765730058342219,0.45595688457190986
1684167990266517000,1.46851708984375,-6.511431812289357,1.232282033574581,1.878889208035171
1684167990276535800,1.478535888671875,-7.374291335406899,1.184526595187187,3.4976667596817013
1684167990286553900,1.488553955078125,-4.669311661463976,1.2111539053499698,4.323286685468256
1684167990296573000,1.498572998046875,-0.35395080055892464,1.0217547845661639,4.446401316222548
1684167990306590700,1.5085908203125,2.093206789237261,0.8498241004556417,4.343260967482626
1684167990316609800,1.51860986328125,2.1562498131275176,0.8043623259633779,3.944923620447516
1684167990326628000,1.528628173828125,0.2055085440635681,0.7434498843610287,3.11768339998275
1684167990336647000,1.53864697265625,-0.9716630121856927,0.8246323760539293,1.8978160268232225
1684167990346665000,1.5486650390625,-0.1219143150538206,1.2808791834831237,-0.43468847109377384
1684167990356684000,1.55868408203125,1.4164835857152938,1.93904673961699,-2.729591260369122
1684167990366701800,1.568701904296875,1.8668483493685721,2.5059610764205456,-4.543579541687667
1684167990376720000,1.578719970703125,0.13435118730068207,2.575621472623944,-6.035810442304611
1684167990386738700,1.58873876953125,-2.7581992229551076,2.24498198954761,-6.5860699969053265
1684167990396757000,1.598757080078125,-2.5214006376147267,1.7743232104063034,-5.11504058201015
1684167990406776000,1.608776123046875,-0.03836450970768928,1.3823691346675158,-2.5563036086916924
1684167990416793900,1.6187939453125,1.998952634525299,0.7231459320008754,-0.5989198328733444
1684167990426813000,1.62881298828125,2.5049913546055556,0.16890344524383544,-0.1938774352416396
1684167990436830700,1.638830810546875,2.401318214163184,-0.5460562576919794,0.14062281491607426
1684167990446849800,1.648849853515625,1.612457993236184,-1.1733604735285044,1.3404334884747862
1684167990456867800,1.658867919921875,0.03879880947172642,-1.5258943930268287,2.4548075200274586
1684167990466886700,1.66888671875,-1.080548918840289,-1.8835510623663663,3.0493516220346093
1684167990476905000,1.678905029296875,-0.8345049507707357,-2.2647557805538177,2.880740145474672
1684167990486924000,1.688924072265625,0.11003215408027171,-2.3571219295620915,2.4374852138265966
1684167990496941800,1.69894189453125,0.320447174885869,-2.1693588855475188,1.7996575581490992
1684167990506961000,1.7089609375,-0.07603636097609996,-1.8501140721887348,1.097123621544242
1684167990516979000,1.71897900390625,-0.5390887567669153,-1.3983353500843048,0.4977516609892249
1684167990526997800,1.728997802734375,-0.9059767803102731,-1.004083518797159,0.09429419446140527
1684167990537015800,1.739015869140625,-1.30453419983685,-0.685080112978816,-0.2819169532224536
1684167990547035000,1.749034912109375,-1.435142693477869,-0.40510932538807387,-0.8108645474642515
1684167990557053000,1.759052978515625,-1.4322826278716325,-0.1563175199151039,-1.2987068088576197
1684167990567072000,1.769072021484375,-1.6833178283572197,0.17609131092131136,-1.730393760047853
1684167990577089800,1.77908984375,-1.8127432496935127,0.42520927960872645,-2.0711764514759183
1684167990587108900,1.78910888671875,-1.8108248488515615,0.6142044957667588,-2.159621043126285
1684167990597127000,1.799126953125,-2.1173656634598967,0.778072869452834,-2.312562072345614
1684167990607145700,1.809145751953125,-1.9996692583620548,0.6655997519612312,-2.3113164561986923
1684167990617163300,1.819163330078125,-0.7765560351490974,0.16197686085104943,-2.1301801368474957
1684167990627182300,1.829182373046875,0.4317009797155857,-0.37286475986540313,-1.8965952528566121
1684167990637200100,1.8392001953125,0.9055021485358477,-0.8486217389285564,-1.9485709392875432
1684167990647218200,1.84921826171875,1.0945865042820573,-1.1962065115869045,-2.127666108199954
1684167990657237200,1.8592373046875,1.2776330411687493,-1.4497925655990838,-2.1378870579630136
1684167990667255000,1.869255126953125,1.19545920035094,-1.5909569400459527,-1.8539251549094915
1684167990677274000,1.879274169921875,0.7992378225564957,-1.7313643586456775,-1.6650041730314493
1684167990687292200,1.889292236328125,0.29628654709756375,-1.9507295786261558,-1.7058581614673136
1684167990697311200,1.899311279296875,-0.12867168035954235,-2.284067214745283,-1.7574124076157807
1684167990707329300,1.909329345703125,-0.4754547812461853,-2.5038538750082253,-2.201990404561162
1684167990717348000,1.91934814453125,-0.6237129133462905,-2.6499656427294016,-3.199166043666005
1684167990727366100,1.9293662109375,-0.10679185698479414,-3.069123367214203,-3.3628654905259605
1684167990737385200,1.93938525390625,0.8822548362001776,-3.4932173790574073,-2.742746217757463
1684167990747403300,1.9494033203125,1.9950667330026626,-3.4126275925606486,-1.5914327408641575
1684167990757422300,1.95942236328125,2.8513652901694178,-2.7445290095210075,-0.24950258409082887
1684167990767440100,1.969440185546875,3.32814021410346,-1.7357634703874587,1.005187680646777
1684167990777459200,1.979459228515625,3.679962478201091,-0.8222685695320368,2.5425135682702065
1684167990787477200,1.989477294921875,3.708832891115546,0.00485679238140583,3.6982764257878062
1684167990797496000,1.99949609375,3.137290894511342,0.9523328732937574,3.853912393179536
1684167990807514000,2.00951416015625,1.6161995178520678,1.54071903719306,2.830909069857001
1684167990817533200,2.019533203125,0.028940263280272483,1.8890455681294203,1.6943687992036343
1684167990827551200,2.02955126953125,-1.1296797372341156,1.9481015682101248,1.2724550540089608
1684167990837570300,2.0395703125,-2.24365804746747,1.3426719150513409,0.8354203120499849
1684167990847588400,2.04958837890625,-3.1800971860587595,0.4185293634533882,-0.029023849910497664
1684167990857607200,2.059607177734375,-3.8314053778171537,-0.3523024488300085,-0.7922557085841894
1684167990867625200,2.069625244140625,-4.3102211599290365,-0.8743161521553993,-1.3804869741827248
1684167990877643000,2.07964306640625,-4.671649164500832,-1.2271113529384134,-1.7817378705769775
1684167990887662000,2.089662109375,-4.88950397991836,-1.1915233222067356,-1.8697566380307078
1684167990897680400,2.099680419921875,-4.891598906370997,-0.6096785427749156,-1.5741522279784081
1684167990907699200,2.10969921875,-4.726242924475669,0.3145996179014444,-1.0410396230116485
1684167990917717200,2.11971728515625,-4.244055035582185,1.282120707976818,-0.37411242183893917
1684167990927736300,2.129736328125,-3.4829701258093118,2.1456845799714324,0.3830082604780793
1684167990937754000,2.139754150390625,-2.658821149358153,2.8013106349289414,1.1062833718165754
1684167990947773200,2.149773193359375,-1.9616864414483308,3.4675241348743437,1.8963631976664066
1684167990957791000,2.159791015625,-1.3375871591329573,4.183175911727547,2.8160610448151826
1684167990967810000,2.16981005859375,-0.7674269722759723,4.907759183055163,3.9316538045078513
1684167990977828400,2.179828369140625,-0.46487318147718903,5.506664987403154,5.160108388748765
1684167990987847200,2.18984716796875,-0.7394745509892702,5.843938209405541,6.127726509457826
1684167990997865200,2.199865234375,-1.3159452361673116,5.69699525155723,6.843802064681053
1684167991007884300,2.20988427734375,-2.0129671313524247,5.076253462976217,7.174967617458105
1684167991017902000,2.219902099609375,-2.7294746482521295,3.819815477788448,6.810150554969907
1684167991027921200,2.229921142578125,-3.6939702530264853,2.3187866459488866,5.624336258059739
1684167991037939200,2.239939208984375,-4.483696150872111,0.7436109201416373,4.246635991986095
1684167991047958000,2.2499580078125,-4.868397479003668,-0.5323386979848146,2.9981393211916085
1684167991057976300,2.259976318359375,-4.81792459835112,-1.3313640468344092,2.122671368652582
1684167991067995400,2.269995361328125,-4.639870462924241,-1.5965557829663157,1.380753516164422
1684167991078013200,2.28001318359375,-4.394051535782218,-1.1905845800518988,0.8716966173067688
1684167991088032300,2.2900322265625,-3.5540304519385097,-0.6799237531289458,0.9157003019452095
1684167991098050000,2.300050048828125,-1.9016040209293363,0.34881811384558675,1.1575634771987795
1684167991108069000,2.310069091796875,0.8592635444521903,1.5250176101922988,1.7754823173135519
1684167991118087200,2.320087158203125,4.47002769100368,2.6817157027333973,2.1646859253004194
1684167991128105200,2.330105224609375,7.820258156362176,3.604756430569291,1.8974965856105088
1684167991138124300,2.340124267578125,10.116112255012988,4.108426667952537,1.5843258314684032
1684167991148142000,2.35014208984375,9.782927763628958,4.158898964083194,0.5006294083826244
1684167991158161200,2.3601611328125,7.23004945321083,3.543862693667412,-0.9534607082799077
1684167991168179200,2.37017919921875,6.129804484775662,2.084289323288202,-1.798530015423894
1684167991178198000,2.380197998046875,6.206159994703531,0.6251666192859411,-1.94584925923869
1684167991188216300,2.39021630859375,6.635228872349858,-0.4880032971739769,-2.3008552679389713
1684167991198235400,2.4002353515625,7.234463762521743,-1.0447685804069042,-2.9209476527005434
1684167991208253200,2.410253173828125,6.387195191767812,-0.8921078294336795,-3.2548984522819517
1684167991218272300,2.420272216796875,4.479094210034608,-0.15144377639889717,-3.1559336356610057
1684167991228290000,2.4302900390625,3.996355116999149,0.7540840911000967,-2.4614228465139862
1684167991238309000,2.44030908203125,5.393404518926143,1.0923118373483418,-1.3064990701690316
1684167991248327200,2.4503271484375,6.069322251284122,1.1571119340389966,-0.6875722220554947
1684167991258346000,2.460345947265625,5.154311100646853,1.0730606089115142,-0.8703618615716695
1684167991268364300,2.4703642578125,3.3476153144240377,0.951136356985569,-1.2692562579676507
1684167991278383400,2.48038330078125,1.7761790674060582,0.47124067068248987,-1.455607389357686
1684167991288401200,2.490401123046875,0.643339404836297,-0.40433424936234946,-1.658743943592906
1684167991298420200,2.500420166015625,-0.5288362428218126,-0.9313704570248722,-1.9275223060399294
1684167991308438300,2.510438232421875,-1.4771271472483873,-1.4199398636490106,-2.2434002733141183
1684167991318457000,2.52045703125,-2.4759341869473457,-1.78188283200562,-2.6815871079176663
1684167991328475100,2.53047509765625,-3.4934330676347014,-2.001876997539401,-3.1994594736546276
1684167991338494200,2.540494140625,-4.122271068909764,-1.9525731606662273,-3.447909333822131
1684167991348512300,2.55051220703125,-4.221414164707064,-1.7094526788279414,-3.339209305128455
1684167991358530300,2.5605302734375,-3.5293250497490165,-1.260110243959725,-2.797588984057307
1684167991368549000,2.570549072265625,-1.8523738338142632,-0.5417939240723848,-1.8595622840136288
1684167991378567200,2.580567138671875,0.7169190203100443,0.46459202644824976,-0.9077940588653087
1684167991388586200,2.590586181640625,3.461989297100901,1.481678234681487,-0.35665772143006325
1684167991398604000,2.60060400390625,6.1149599668651815,2.3876415709882974,-0.26862814032137394
1684167991408623000,2.610623046875,8.06988056744039,3.1436691973716018,-0.6216729319512844
1684167991418641200,2.62064111328125,8.278061545583606,3.535338610950112,-1.3005986139535903
1684167991428660200,2.63066015625,6.419688763615489,3.513458787575364,-2.201848365741968
1684167991438678300,2.64067822265625,3.9248447090148924,3.467835392780602,-2.7049370038449765
1684167991448697000,2.650697021484375,2.0354384908795358,3.5277190758571026,-2.590485279756784
1684167991458715100,2.660715087890625,0.9466507360041141,3.388254783326387,-2.268833989778161
1684167991468734200,2.670734130859375,0.15531448035240172,3.040646045270562,-2.2419518280714748
1684167991478752300,2.680752197265625,-0.5859416933566332,2.0589339327573777,-2.655634336015582
1684167991488771300,2.690771240234375,-1.421658358004689,0.657474313172698,-3.7287756089478727
1684167991498789400,2.700789306640625,-1.8148019357889889,-0.7154466096699238,-4.912149526968598
1684167991508808200,2.71080810546875,-1.5957389136254787,-1.872986413732171,-5.722403249058127
1684167991518826200,2.720826171875,-1.1197545555472372,-2.6477944361701606,-6.210964180114865
1684167991528845300,2.73084521484375,-0.7663163806855678,-3.0797356543824077,-6.559668896713853
1684167991538863000,2.740863037109375,-0.6967007004067302,-3.4207781657904386,-6.833100053402781
1684167991548882200,2.750882080078125,-0.7884671299561857,-3.6960362456455824,-7.215441666665673
1684167991558900200,2.760900146484375,-1.0909680215239523,-3.933153979937732,-7.625491371065378
1684167991568919300,2.770919189453125,-1.338835405628383,-4.195433920276165,-7.897695616307854
1684167991578937300,2.780937255859375,-0.9386328492432832,-4.419753840054572,-7.9744713974744075
1684167991588955100,2.790955078125,0.35920974400043487,-4.247481795160472,-7.470411283990741
1684167991598974200,2.80097412109375,1.7602736422657965,-3.732786890415847,-6.651520081937313
1684167991608992000,2.810991943359375,3.5253485473334787,-3.020265228281915,-5.608270089399814
1684167991619010600,2.821010498046875,5.048803730514646,-1.8835276814907789,-4.544212871155143
1684167991629028600,2.831028564453125,5.510462041598558,-0.21937428006976842,-3.5345839931905267
1684167991639047700,2.841047607421875,5.194091322371364,1.7377093437582254,-2.576473705539107
1684167991649065500,2.8510654296875,5.344404633435607,3.4213799310758706,-1.2795534878373145
1684167991659084500,2.86108447265625,6.01469984973669,4.913800801306962,0.8989549188494682
1684167991669102600,2.8711025390625,6.61890551405847,6.211746854925155,3.9289001218855377
1684167991679121400,2.881121337890625,6.094712128606438,6.980528748941421,6.391088107553124
1684167991689139700,2.8911396484375,4.134874529895186,7.274823245438933,7.533220499125123
1684167991699158800,2.90115869140625,2.21115103161633,6.805615249627828,7.610815779981016
1684167991709176600,2.911176513671875,0.5369798017889261,5.183833547729254,6.397245461139082
1684167991719195600,2.921195556640625,-1.5713058986365793,3.1457772755667563,4.113701393485069
1684167991729213400,2.93121337890625,-3.2774855471432205,1.4946882306411862,2.0296850419193504
1684167991739232500,2.941232421875,-4.345756583690643,0.32527240308523175,0.9258744899570941
1684167991749250600,2.95125048828125,-5.059949393907189,-0.4043573379769921,0.40276714617609977
1684167991759269400,2.961269287109375,-5.443125704428553,-0.7279992172509432,0.38603053090870376
1684167991769287700,2.97128759765625,-5.582088769438863,-0.9530398525193333,0.8342541908800601
1684167991779306800,2.981306640625,-5.592992440769076,-0.9542869299709796,1.3841940120071172
1684167991789324500,2.991324462890625,-5.606178670078516,-0.8956219750344753,1.809197539910674
1684167991799343600,3.001343505859375,-5.621602449181675,-1.0156669890850782,1.9407932910233734
1684167991809361400,3.011361328125,-5.624840700450539,-1.36608873873502,1.9591256510496138
1684167991819379500,3.02137939453125,-5.526060008224845,-1.7804197737157343,2.1305746891230344
1684167991829398500,3.0313984375,-5.315954784020781,-2.164622504675388,2.6120366018295287
1684167991839416600,3.04141650390625,-4.882804190018772,-2.4766768220081925,3.5199867280393837
1684167991849435600,3.051435546875,-4.345944799739122,-2.452055883231759,4.43587992220819
1684167991859453700,3.06145361328125,-3.867699510991573,-1.8939140509486196,4.714499879711866
1684167991869472500,3.071472412109375,-3.2622879780113694,-0.7745479101970791,4.4213703353405
1684167991879490600,3.081490478515625,-2.524337860110402,0.6850301363572477,4.090619793105125
1684167991889509600,3.091509521484375,-1.8118524383336305,1.8484183741867541,3.980622710338235
1684167991899527400,3.10152734375,-0.8559797004759311,2.6259105211421847,3.740290105652809
1684167991909546500,3.11154638671875,0.17858020512759684,2.9946669689059258,3.3044615246132016
1684167991919564500,3.121564453125,1.1530950996130704,2.7800337458834052,2.6183555757179855
1684167991929583600,3.13158349609375,1.931788146790862,2.1065864952921864,1.8534592909634113
1684167991939601700,3.1416015625,2.5041443823873997,1.4020152076408265,1.0261308076933027
1684167991949620500,3.151620361328125,2.8194845895230767,0.812200764504075,0.15589666415452957
1684167991959638500,3.161638427734375,2.910996167528629,0.5597910607948899,-0.7529112479284406
1684167991969657600,3.17165771484375,2.6377701780229805,0.5710004370734095,-1.2878995836392044
1684167991979675600,3.181675537109375,2.3545278214156626,0.7484580679118633,-1.6388658154293894
1684167991989694700,3.19169482421875,2.349876196217537,0.8738660703003406,-1.7232605471670626
1684167991999712500,3.20171240234375,2.464239657500386,0.8436179392918944,-1.865099167613685
1684167992009731600,3.211731689453125,2.528694301754236,0.5776303766071796,-2.0502052673786877
1684167992019749600,3.22174951171875,2.4268939694464207,0.15770546714216468,-2.3494831052467227
1684167992029767400,3.231767333984375,2.120937092205882,-0.3375397639840841,-2.6298364624142647
1684167992039786500,3.241786376953125,1.6791180385798214,-0.7982949887484312,-2.6531834357321262
1684167992049804800,3.2518046875,1.241461949852109,-1.130038633674383,-2.4738375069290397
1684167992059823600,3.26182373046875,0.9148644356429576,-1.2216224001333116,-2.0088404068112373
1684167992069841700,3.271841552734375,0.7986293352693319,-1.1363356879919766,-1.3912225954696535
1684167992079860700,3.28186083984375,0.6697206312835217,-1.0155828179329633,-0.9132628456652164
1684167992089878500,3.29187841796875,0.42655192638933653,-0.9192319832026958,-0.6668108813166618
1684167992099897600,3.301897705078125,0.25169103404581544,-0.8439578387707471,-0.4855921443790197
1684167992109915400,3.311915283203125,0.23452947136461733,-0.6865118993476033,-0.2347574349015951
1684167992119934500,3.3219345703125,0.26030922478735447,-0.4050844832077622,0.0256803847014904
1684167992129952800,3.331952880859375,0.18074878133833408,-0.05564999102950096,0.2273617716923356
1684167992139971600,3.3419716796875,-0.02893207997381687,0.3665454937160015,0.33044337598234413
1684167992149989600,3.35198974609375,-0.2669499779760837,0.7735995234310626,0.4141609391108155
1684167992160008700,3.3620087890625,-0.4206418255627155,1.0534253495931625,0.5155059288665652
1684167992170026500,3.372026611328125,-0.5895715742915868,1.2497981087818741,0.5892880811750888
1684167992180045600,3.382045654296875,-0.8102092984259128,1.3164356500327585,0.527897208406031
1684167992190063400,3.3920634765625,-1.016269631153345,1.2232356805488467,0.37379385740905996
1684167992200082400,3.40208251953125,-1.1384954963743685,0.9841326176583767,0.15514555352628231
1684167992210100700,3.412100830078125,-1.1308885285019874,0.669582099595666,-0.03132131319791078
1684167992220119600,3.42211962890625,-1.0087246226012707,0.45353813299238677,-0.024535890841484068
1684167992230137600,3.4321376953125,-0.7323644267231225,0.30855507704019547,0.1698839807137847
1684167992240156700,3.44215673828125,-0.39402737488150597,0.18606676149070261,0.4360544987499714
1684167992250174500,3.452174560546875,-0.13997837953269482,0.015444529630243778,0.5715349823415279
1684167992260192500,3.462192626953125,-0.062168579143285746,-0.09095657447129488,0.5137386269330978
1684167992270211600,3.472211669921875,-0.0746668261885643,-0.2187280911207199,0.3521335220038891
1684167992280229600,3.482229736328125,-0.045211599123477934,-0.29828093578517434,0.22399755595624446
1684167992290248700,3.492248779296875,-0.00450257211625576,-0.2083750394105911,0.10432692817598581
1684167992300266500,3.5022666015625,0.06781389155387878,0.02913169419914484,0.034937165607512
1684167992310285600,3.51228564453125,0.1661468400120735,0.37113662089854477,0.015896072790026663
1684167992320303600,3.5223037109375,0.19596856230199336,0.6751736359924078,-0.0412350967079401
1684167992330322400,3.532322509765625,0.21671265964508055,0.8229960070237516,-0.08201894251704216
1684167992340340700,3.5423408203125,0.18583061464726924,0.8119093803420663,-0.08344634497165679
1684167992350359600,3.552359619140625,0.09006079467535018,0.6555576658964156,-0.010783259820938109
1684167992360377600,3.562377685546875,-0.08180676107108592,0.417198114849627,0.07563245635032653
1684167992370396700,3.572396728515625,-0.2678805368244648,0.24116379481256006,0.20829817478209733
1684167992380414500,3.58241455078125,-0.4387970754563808,0.1017088546320796,0.3144482267320156
1684167992390433500,3.59243359375,-0.5531412475168704,0.037977848477661606,0.4034925378412008
1684167992400451600,3.60245166015625,-0.5611772544562816,-0.025776246291399,0.561661530841887
1684167992410470400,3.612470458984375,-0.5065957694411277,-0.08788549646288156,0.6496601322904229
1684167992420488700,3.62248876953125,-0.5031646259486675,-0.10862053371667861,0.6509945957645773
1684167992430507800,3.6325078125,-0.5324684618443251,-0.06755261026918888,0.5558376469939946
1684167992440525600,3.642525634765625,-0.5546177498102188,0.05575608175247907,0.33076953919678925
1684167992450544600,3.652544677734375,-0.5572872612804174,0.21136136174499986,0.07921674457788468
1684167992460562400,3.6625625,-0.46885202198028564,0.3248164760112762,-0.13437339913249016
1684167992470580500,3.67258056640625,-0.2936316486746073,0.33595278705358506,-0.3113859165519476
1684167992480599600,3.682599609375,-0.055335518252849575,0.31803572982996703,-0.457267674909532
1684167992490617600,3.69261767578125,0.2294289333552122,0.3139914228752255,-0.5446589581146836
1684167992500636700,3.70263671875,0.48182957697510714,0.30744945388585326,-0.5408008213818073
1684167992510654700,3.71265478515625,0.7143523846924305,0.3424538395106792,-0.5056470904141664
1684167992520673500,3.722673583984375,0.8261036176502704,0.37506899191141124,-0.5087395034715533
1684167992530691600,3.732691650390625,0.8361340132772922,0.42105186766833064,-0.5219482368737459
1684167992540710700,3.742710693359375,0.7206704817980527,0.41575259221643207,-0.5660352158814669
1684167992550728400,3.752728515625,0.587590629607439,0.3277697728589177,-0.5916714691802859
1684167992560747500,3.76274755859375,0.506278374055028,0.21053835492432116,-0.5255199578806757
1684167992570765600,3.772765625,0.395838223695755,0.12292875279337168,-0.4436778332352638
1684167992580784600,3.78278466796875,0.29765491284132,0.14647650938034057,-0.3335498175650835
1684167992590802700,3.792802734375,0.2637853764653206,0.15324556512385606,-0.1720645396232605
1684167992600821500,3.802821533203125,0.277552036011219,0.14599369429945944,0.041274551935493946
1684167992610839600,3.812839599609375,0.25908815855979916,0.1322127139672637,0.2199278222993016
1684167992620859000,3.82285888671875,0.21387714395821092,0.151576462867856,0.3900973419561982
1684167992630876700,3.832876708984375,0.16630641448795794,0.20114801076650618,0.5734300023078918
1684167992640895700,3.842895751953125,0.18179098386764525,0.2501137017264962,0.7216326048284769
1684167992650914000,3.8529140625,0.15015958180725575,0.27728520176857707,0.8153484148800373
1684167992660932900,3.862932861328125,-0.016168459990620613,0.29349720863997936,0.7811883711248636
1684167992670951000,3.872950927734375,-0.3573077097713947,0.2754009954571724,0.5737424292579293
1684167992680970000,3.882969970703125,-0.7260165190011263,0.2095347308397293,0.33694442843943834
1684167992690987800,3.89298779296875,-0.9549363337904214,0.1867193801805377,0.25959698486477134
1684167992701005800,3.903005859375,-1.0878384913265704,0.24139175834953783,0.23194208521991966
1684167992711024600,3.913024658203125,-1.2171873402953146,0.281916076439619,0.07882453038990497
1684167992721043000,3.92304296875,-1.1883376779079438,0.33657267251759765,-0.03885200096368789
1684167992731062000,3.93306201171875,-1.0602005428165198,0.4123299242913723,-0.08780863183438778
1684167992741079800,3.943079833984375,-0.8932032234549522,0.45843496512323617,-0.1086886305168271
1684167992751099000,3.953098876953125,-0.7102291672825813,0.4535834334388375,-0.12897738530784844
1684167992761117000,3.963116943359375,-0.3191875302135944,0.3317380919679999,0.005759001918137073
1684167992771135700,3.9731357421875,0.13461656023859978,0.12196546071916818,0.22515958547294138
1684167992781153800,3.98315380859375,0.37969665171205996,-0.14605039292275904,0.3037958998143673
1684167992791172900,3.9931728515625,0.35116613827645776,-0.43613545503169293,0.19016221411079168
1684167992801191000,4.00319091796875,0.1555903746843338,-0.5942217381849885,0.06342004050910473
1684167992811210000,4.0132099609375,-0.10116203440427779,-0.6346309054628014,-0.07000906351059674
1684167992821227800,4.023227783203125,-0.25930735426843166,-0.5604889799311756,-0.23877339254468677
1684167992831246800,4.033246826171875,-0.1884767452418804,-0.42425124823153015,-0.4262734017089009
1684167992841265000,4.043264892578125,-0.010068389549851417,-0.3269596255198121,-0.6535051172807812
1684167992851283700,4.05328369140625,0.15971125400662423,-0.2349734157398343,-0.9238345085620879
1684167992861302000,4.063302001953125,0.18691607179641723,-0.23490210406929254,-1.2760811355516313
1684167992871321000,4.073321044921875,0.013127192598581314,-0.18302461731582878,-1.6092477990180254
1684167992881339000,4.0833388671875,-0.15879764629304408,-0.05087532397359609,-1.693252070133388
1684167992891358000,4.09335791015625,-0.30069910284280776,0.10532499930262565,-1.6346248168587683
1684167992901375700,4.103375732421875,-0.27701486039459705,0.18891396761536597,-1.4541566060274838
1684167992911394800,4.113394775390625,-0.12141104170680045,0.21525077039897442,-1.213068799060583
1684167992921412900,4.123412841796875,0.12380641241073607,0.3351511152818799,-0.9954992303252219
1684167992931431000,4.133430908203125,0.4377864371091127,0.5443377633363008,-0.7701444145411253
1684167992941450000,4.143449951171875,0.7888742494523525,0.7549258026212453,-0.4184335018634796
1684167992951467800,4.1534677734375,1.01650285538733,0.9140230163827539,-0.020519640937447545
1684167992961486800,4.16348681640625,0.9488917929291725,0.9260086377307772,0.253183902952075
1684167992971505000,4.1735048828125,0.7356634682685136,0.8498831371665,0.4484384717658162
1684167992981523700,4.183523681640625,0.4909089554876089,0.7114107782825827,0.6252884920999408
1684167992991541800,4.193541748046875,0.16984335644245147,0.5898273026183247,0.7819041181787848
1684167993001560800,4.203560791015625,-0.24336627329289912,0.5203761652514338,0.8534954824447631
1684167993011579000,4.213578857421875,-0.6469868214279413,0.5167483301430941,0.8919044158160686
1684167993021598000,4.223597900390625,-1.033170497071743,0.5514239222049713,0.8440881871521473
1684167993031616000,4.233615966796875,-1.2804150731027126,0.5723085970625281,0.7732227990731596
1684167993041634800,4.243634765625,-1.2554004588335752,0.5058528421193361,0.8520470372021198
1684167993051652900,4.25365283203125,-1.0192693974912166,0.3218023888871073,0.9661769819900393
1684167993061672000,4.263671875,-0.6985059962630271,-0.009453180260956286,1.0000547016724943
1684167993071689700,4.273689697265625,-0.4039905504912138,-0.3607566811814904,1.0304860802933573
1684167993081708800,4.283708740234375,-0.23638123671114444,-0.6329018897131085,1.0019327705040573
1684167993091726800,4.293726806640625,-0.16541151147484778,-0.7271887776508927,0.9120134301260113
1684167993101746000,4.303745849609375,-0.185862763351202,-0.6476748036921024,0.7184697568833828
1684167993111765000,4.313764892578125,-0.1770171935945749,-0.46893677765429015,0.5004448455959558
1684167993121782800,4.32378271484375,-0.03196457953751087,-0.30115999835282564,0.26547142985612154
1684167993131801900,4.3338017578125,0.1429243698567152,-0.10981208158880472,-0.03231879980266094
1684167993141820000,4.34381982421875,0.24945231520831584,0.062079731816053384,-0.4392693691432476
1684167993151838700,4.353838623046875,0.3657739248216152,0.24959698437601327,-0.8379065759077667
1684167993161856800,4.363856689453125,0.564091680598259,0.4298594435021281,-1.0897124685049056
1684167993171875800,4.373875732421875,0.8509066349953412,0.5516597767874598,-1.2215461200267075
1684167993181894000,4.383893798828125,1.0334241795718668,0.6259510476619005,-1.237129181344807
1684167993191912000,4.393911865234375,1.0346282946646213,0.6967766882523894,-1.2426137502357364
1684167993201930800,4.4039306640625,0.7978881615132093,0.6430255165815353,-1.2218161691397427
1684167993211948800,4.41394873046875,0.42356794214248655,0.49925826615989205,-1.0701207560673356
1684167993221968000,4.4239677734375,0.15242811126112937,0.30519378391355273,-0.8636144331380724
1684167993231986000,4.43398583984375,0.11839140162467957,0.08917875114381313,-0.6175552674993873
1684167993242005000,4.4440048828125,0.2133124958127737,-0.11905337266474962,-0.3582525894060731
1684167993252023000,4.45402294921875,0.29755846672952174,-0.22268471979200838,-0.14153671489059924
1684167993262041900,4.464041748046875,0.20660686069428918,-0.18643267219364643,0.00471475356221199
1684167993272060000,4.474059814453125,-0.00969838719367981,-0.01763034923672676,0.14769582204222678
1684167993282079000,4.484078857421875,-0.289769712549448,0.22311668146848676,0.270323253801465
1684167993292096800,4.4940966796875,-0.6284697524845599,0.519517794856429,0.34550445925295353
1684167993302115800,4.50411572265625,-0.9529314237087965,0.7518512174814939,0.32573066824674607
1684167993312134000,4.5141337890625,-1.1731126362472772,0.8189394251093268,0.247917068465054
1684167993322153000,4.524153076171875,-1.25339613327384,0.7341852124094963,0.14314268878251313
1684167993332171000,4.5341708984375,-1.1467758334636688,0.4756812834784388,0.0788362208276987
1684167993342189800,4.54418994140625,-0.9143237528949976,0.1251613341510296,0.09119418261945247
1684167993352208000,4.554207763671875,-0.6190577810168266,-0.2230102984845638,0.16056874761879444
1684167993362227000,4.56422705078125,-0.3193447666019201,-0.39763592076748605,0.275379368147254
1684167993372244700,4.57424462890625,-0.12817220640480517,-0.3962982424229383,0.37098172259777784
1684167993382263800,4.584263916015625,-0.04840776481628418,-0.2567471483916044,0.3588441255584359
1684167993392281900,4.59428173828125,-0.051564183020591736,-0.04510726196616888,0.28469080184996126
1684167993402301000,4.604301025390625,-0.025232640933990476,0.1545142698854208,0.14024404473155735
1684167993412319000,4.614319091796875,0.00215805481672287,0.2942334139600396,-0.06266308466196059
1684167993422336800,4.624336669921875,0.04678805465996265,0.36671325149834155,-0.2876812158375978
1684167993432355800,4.63435595703125,0.1961854199230671,0.32183687567859887,-0.4811357494920492
1684167993442373600,4.64437353515625,0.2581850722402334,0.24824118585288524,-0.6239961142018438
1684167993452392700,4.654392822265625,0.19812252546548842,0.18754793995916844,-0.7116045472890138
1684167993462411000,4.664410888671875,0.17337036152482033,0.17646715849637984,-0.6129901515409351
1684167993472429800,4.674429931640625,0.15004267742931843,0.1650645977333188,-0.42245150533318515
1684167993482448000,4.68444775390625,0.13941431590914724,0.1762286735653877,-0.2011994486927986
1684167993492467000,4.694467041015625,0.13389292213916779,0.18735709356218574,0.0012207739666104315
1684167993502484700,4.704484619140625,0.09757014739215374,0.19024580074101685,0.14362842647284269
1684167993512503800,4.71450390625,0.028984102421998975,0.2127826267197728,0.22070698997825383
1684167993522521900,4.72452197265625,-0.09634148238003254,0.2559419694885611,0.16433131502270698
1684167993532540700,4.734540771484375,-0.19624504115581512,0.2854100560352206,0.12688508920371533
1684167993542559000,4.74455908203125,-0.20209785883724687,0.3161731508284807,0.14571341605335472
1684167993552578000,4.754578125,-0.11324527090787886,0.2758127911284566,0.17555968826264143
1684167993562595800,4.764595947265625,-0.01714578059017658,0.19947861624956129,0.2148363443791866
1684167993572615000,4.774614990234375,0.04506546865105629,0.10161591565161943,0.23007512230426072
1684167993582632700,4.7846328125,0.03729483464956283,0.03861410055458545,0.2111772373497486
1684167993592651800,4.79465185546875,-0.0651075552046299,0.008803776441514491,0.16392828717976807
1684167993602670000,4.804670166015625,-0.21371990756988524,0.02878098106533289,0.04750613980144262
1684167993612689000,4.81468896484375,-0.32580840965807434,0.11470043815225361,-0.11115794323980807
1684167993622707000,4.82470703125,-0.2719529008299112,0.20180530563145874,-0.2071346839606762
1684167993632725000,4.83472509765625,-0.06690203740596772,0.23668314226716755,-0.26087825684696436
1684167993642744000,4.844744140625,0.1051356142103672,0.23857670092880726,-0.40697891865223645
1684167993652761900,4.854761962890625,0.19076339487433433,0.2314811897099018,-0.5082233706429601
1684167993662781000,4.864781005859375,0.24432664275765417,0.2577563254341483,-0.4051122479975223
1684167993672799000,4.874799072265625,0.2502384971499443,0.23341449586004018,-0.259562205812335
1684167993682818000,4.884818115234375,0.1399579212665558,0.18635989921838045,-0.19147388123124837
1684167993692836000,4.894836181640625,0.0026712650358676907,0.0813698309585452,-0.15990648431777954
1684167993702855000,4.90485498046875,-0.09532032263875007,-0.01314823538661003,-0.17372019787579773
1684167993712873000,4.914873046875,-0.11809095737338066,-0.11556143889576195,-0.21602409285902976
1684167993722892000,4.92489208984375,-0.07115268058776855,-0.20687311041504144,-0.2257388466656208
1684167993732909800,4.934909912109375,0.013943185156583784,-0.20214549737125634,-0.2070686329871416
1684167993742929000,4.944928955078125,0.029140754288434982,-0.08294833232164382,-0.11013327636718749
1684167993752947000,4.954947021484375,-0.005796703580021858,0.13747545680105686,0.001047170965373516
1684167993762966000,4.964966064453125,-0.06449088461101055,0.36547786448448893,0.12497662523388862
1684167993772984000,4.974984130859375,-0.1366413440644741,0.5450450348228216,0.14415040452033281
1684167993783003000,4.9850029296875,-0.27037878338098525,0.6404854767099023,0.09809680161476135
1684167993793021000,4.99502099609375,-0.40484453697204587,0.637882308474183,0.02148994727432728
1684167993803040000,5.0050400390625,-0.4584697441756725,0.5526788907021284,0.016321312464773655
1684167993813057800,5.015057861328125,-0.40420799263417717,0.37784021019041536,0.048106443782150746
1684167993823076900,5.025076904296875,-0.30426234828233717,0.21148323455899953,0.09445406119823455
1684167993833095000,5.035094970703125,-0.23373627516031265,0.06547697303891181,0.13233780165165662
1684167993843114000,5.045114013671875,-0.24056056822240351,0.02875818471163511,0.16895809804052114
1684167993853132000,5.055132080078125,-0.2495277185320854,0.12582535101771353,0.248043909715116
1684167993863149800,5.06514990234375,-0.1760077242910862,0.2156707493767142,0.32786651123166083
1684167993873169000,5.0751689453125,-0.06642156041264534,0.2461941901952028,0.3268117414817214
1684167993883187000,5.08518701171875,-0.02527121937870979,0.2215229825362563,0.18850041837841272
1684167993893205800,5.095205810546875,-0.06511690755486488,0.16928689160346985,-0.021980653400719165
1684167993903224000,5.10522412109375,-0.10871990243792533,0.11940876197367906,-0.09662702132314444
1684167993913243100,5.1152431640625,-0.16183774464130402,0.11153320629298687,-0.13539631243944167
1684167993923261000,5.125260986328125,-0.2730594007670879,0.13714169480204583,-0.18152619545161722
1684167993933280000,5.135280029296875,-0.26613866159319877,0.12363602427989244,-0.17615677737295626
1684167993943297800,5.1452978515625,-0.08059972336888313,0.030257775619626042,-0.05883563532829284
1684167993953316900,5.15531689453125,0.1335954004973173,-0.04617430667579174,0.036441724951565266
1684167993963335000,5.1653349609375,0.2035141553759575,-0.1078016185492277,0.07439151637852191
1684167993973354000,5.17535400390625,0.1889601448446512,-0.11393062282353639,0.08668079684823751
1684167993983372000,5.1853720703125,0.07207973230481148,-0.05284048656672239,0.10926204649060964
1684167993993391000,5.19539111328125,-0.0608288549721241,0.05832213284820318,0.06725012019127607
1684167994003409000,5.205408935546875,-0.2146843686878681,0.17559417505413294,-0.02628857972770929
1684167994013428000,5.215427978515625,-0.32290392038822174,0.23910803132653236,-0.07849281421750784
1684167994023445800,5.22544580078125,-0.36755262493193147,0.2468029697433114,-0.09552665886580944
1684167994033464800,5.23546484375,-0.36754034997224805,0.24843641616404055,-0.06864537394195795
1684167994043483100,5.245483154296875,-0.4153232608884573,0.30577158380150793,-0.030348376512527465
1684167994053502000,5.255501953125,-0.43981998876333234,0.34661738893091676,0.03010375410169363
1684167994063520000,5.26552001953125,-0.40274961051940916,0.3467626426205039,0.051882747450470924
1684167994073538000,5.2755380859375,-0.32428806822299955,0.2622211958885193,0.04075403519272804
1684167994083556900,5.285556884765625,-0.24807693520188331,0.04929302321821451,-0.0017316460981965064
1684167994093575000,5.295574951171875,-0.20665420696735382,-0.13059066572338343,-0.07779986351728439
1684167994103594000,5.305593994140625,-0.2511965285271406,-0.23919717091470954,-0.15910452028512953
1684167994113612000,5.315612060546875,-0.28923604406416414,-0.17885785302519797,-0.27805998553335665
1684167994123631000,5.325631103515625,-0.2520516840517521,0.03272124312371015,-0.36226591670066116
1684167994133649000,5.33564892578125,-0.018531097468733788,0.25681349162608386,-0.34497897407412526
1684167994143668000,5.34566796875,0.2763549351811409,0.40746699443012474,-0.36029169401824473
1684167994153686000,5.35568603515625,0.4589373616874218,0.3939543096452951,-0.43762247871905563
1684167994163704800,5.365704833984375,0.4680711007356643,0.306996741682291,-0.45165568024665115
1684167994173723000,5.375722900390625,0.38255437923073765,0.22526392263025044,-0.3629480537459254
1684167994183742000,5.385741943359375,0.1878793638706207,0.16708499764502047,-0.22968641524761915
1684167994193760000,5.395760009765625,-0.08519640350937843,0.1442746154218912,-0.15074410369694233
1684167994203779000,5.405779052734375,-0.20286942773163316,0.17947189327031374,-0.10884762047082185
1684167994213796900,5.415796875,-0.19775544571876524,0.21361060197651385,-0.036514790187776085
1684167994223816000,5.42581591796875,-0.07168634907305241,0.24826281316280363,0.007561375164985657
1684167994233834000,5.435833984375,0.0020481647014617918,0.23425211572796106,0.061384735289216036
1684167994243852800,5.445852783203125,0.013901099580526351,0.23819909978806972,0.15752835700958967
1684167994253870800,5.455870849609375,-0.033811668708920474,0.26568507260680196,0.23972762452960014
1684167994263890000,5.465889892578125,-0.11456044515967369,0.3423351815670728,0.33436230299174785
1684167994273908000,5.475907958984375,-0.2524246090173721,0.4292018563762307,0.378163450795412
1684167994283926000,5.485926025390625,-0.39177053586542604,0.49660629034638404,0.33273879344314333
1684167994293944800,5.49594482421875,-0.4760761280149221,0.48315994879603386,0.18227087633907793
1684167994303963000,5.505962890625,-0.5336567948460579,0.3647513037756085,0.06872749926745891
1684167994313982000,5.51598193359375,-0.5558984372705221,0.14021014246195554,-0.055251931622624394
1684167994324000000,5.526,-0.6141659173220396,-0.06373480554670095,-0.16064181285500526
1684167994334019000,5.53601904296875,-0.6974211236357688,-0.256930688264966,-0.264183728133142
1684167994344037000,5.546037109375,-0.7465835062116384,-0.3060264353454113,-0.3571428745985031
1684167994354056000,5.556055908203125,-0.6492471675753593,-0.2752297305434942,-0.3253109815299511
1684167994364074000,5.566073974609375,-0.3188753955245018,-0.24886224036067722,-0.2071907980620861
1684167994374093000,5.576093017578125,0.12000409751832485,-0.20107611457407473,-0.09708411744087934
1684167994384110800,5.58611083984375,0.2992939122200012,-0.08764262761771678,-0.028063480445742604
1684167994394130000,5.5961298828125,0.4020797484338283,0.005763385832309722,0.05516103846877813
1684167994404148000,5.60614794921875,0.478528781864047,-0.01614595589786768,0.18609949471652507
1684167994414167000,5.6161669921875,0.43378363120853897,-0.14629150820225476,0.13427958336919546
1684167994424185000,5.62618505859375,0.2403963175714016,-0.23584259978979824,-0.13040391097962856
1684167994434204000,5.636203857421875,-0.07827040363848209,-0.17703852864354847,-0.3630471302062273
1684167994444222000,5.646221923828125,-0.28121348112821576,-0.007743453733623028,-0.48686494079381226
1684167994454241000,5.656240966796875,-0.37717443975806236,0.18569822043925524,-0.4489955211266875
1684167994464258800,5.6662587890625,-0.32838907380104065,0.3708087041184306,-0.28945728559941053
1684167994474278000,5.67627783203125,-0.1725748272329569,0.47833062894344325,-0.06490794097930193
1684167994484296000,5.6862958984375,-0.07131810028254985,0.5531780723959208,0.1292532796397805
1684167994494314000,5.69631396484375,-0.10395955616831778,0.5835200191676616,0.23895079493820665
1684167994504333000,5.7063330078125,-0.2904191163688898,0.5183750545620918,0.31286797180324794
1684167994514350800,5.716350830078125,-0.46541269518136974,0.44410424195379017,0.35969577395170926
1684167994524370000,5.726369873046875,-0.5143348392605781,0.33357641331106425,0.33757863468974825
1684167994534388000,5.736387939453125,-0.3507558039098978,0.18611089289337396,0.278437878935039
1684167994544406800,5.74640673828125,-0.009375146588683127,0.0812801068484783,0.17707886065393685
1684167994554425000,5.756425048828125,0.4011883525520563,-0.03439619059860706,0.03195756527483463
1684167994564444200,5.766444091796875,0.7350988201230764,-0.13757716360986233,-0.09480009815692901
1684167994574462000,5.7764619140625,0.9212485837221145,-0.13204992462098597,-0.18438947592824698
1684167994584481000,5.78648095703125,0.9019885874569415,-0.01470978561490774,-0.2581099611774087
1684167994594498800,5.796498779296875,0.668369801196456,0.22045506104379892,-0.3881742649391293
1684167994604518000,5.806517822265625,0.34346740046739577,0.5536220167711376,-0.5274298831552267
1684167994614536000,5.816535888671875,0.12185527834296225,0.8300701831936835,-0.6745294928699731
1684167994624555300,5.82655517578125,0.07322013451159,0.957980816052854,-0.8269573118701576
1684167994634573300,5.8365732421875,0.15665128191411495,0.8265209662795067,-0.9761191148117184
1684167994644592400,5.84659228515625,0.31010990526676174,0.45358167987316844,-1.0268456779643893
1684167994654610200,5.856610107421875,0.374905325782299,0.05321896449029445,-0.8813897438034415
1684167994664629200,5.866629150390625,0.15593699616491793,-0.1387549752175808,-0.6372749902307987
1684167994674647300,5.876647216796875,-0.19922084209620952,-0.058603580138087266,-0.29088205770552156
1684167994684666000,5.886666015625,-0.3641390170961618,0.10974632287621497,0.18528262537568807
1684167994694684200,5.89668408203125,-0.2874351321220398,0.24054975456744432,0.6333861660987138
1684167994704703200,5.906703125,-0.09935235463380813,0.2325727843388915,0.8659864229664206
1684167994714721300,5.91672119140625,0.04285071521103382,0.10793196693062782,0.9240639334037899
1684167994724739300,5.9267392578125,0.07036825221180916,-0.08718260889053345,0.8842407493203878
1684167994734758100,5.936758056640625,-0.09385609530508518,-0.26312135959863664,0.807592393925786
1684167994744776200,5.946776123046875,-0.33123277279436586,-0.3523673307597637,0.7980845608681439
1684167994754795300,5.956795166015625,-0.5306979450404644,-0.28610125316977497,0.7602209864199161
1684167994764813300,5.966813232421875,-0.7461112125247716,-0.0814940418601036,0.5868544242873788
1684167994774832000,5.97683203125,-0.8711486280351877,0.15624474693983792,0.41424277217537164
1684167994784850400,5.986850341796875,-0.7961071233153343,0.38012393721342086,0.2668266438573599
1684167994794869200,5.996869140625,-0.5777051954090595,0.5150149304792284,0.14205723163336514
1684167994804887300,6.00688720703125,-0.26990882778167724,0.5028834709197283,0.018393150302767752
1684167994814906400,6.01690625,-0.0050075990289449685,0.3159817199096083,-0.11008476105034351
1684167994824924200,6.026924072265625,0.17907938682138919,0.002752221317589283,-0.1906567196294665
1684167994834943200,6.036943115234375,0.3792401401162147,-0.24610651191174981,-0.15674831254780291
1684167994844961300,6.046961181640625,0.5179086060941219,-0.36300796723961826,-0.0959901847243309
1684167994854980400,6.05698046875,0.5475836133897304,-0.2915963434547186,-0.07904694096893072
1684167994864998400,6.066998291015625,0.4983499191433191,0.00044102176576852795,-0.09126607881188392
1684167994875017200,6.077017333984375,0.39257717607319353,0.39085108293294907,-0.1227662557080388
1684167994885035300,6.08703515625,0.4388952751338482,0.704983375583589,-0.15859481719732282
1684167994895054300,6.097054443359375,0.5801069958537817,0.7982382901251316,-0.2725844767317176
1684167994905072000,6.107072021484375,0.5897872628688812,0.6243143863707781,-0.45496290509849785
1684167994915091200,6.11709130859375,0.4857973115622997,0.2749278249874711,-0.5436114948883652
1684167994925109200,6.127109130859375,0.2792173388749361,0.009426292254030704,-0.4976423553958535
1684167994935127300,6.137127197265625,0.0035632454395294185,-0.05062281051725149,-0.32359687108844515
1684167994945146400,6.147146484375,-0.14550503399968145,0.003943476928770542,-0.0218505972802639
1684167994955164200,6.1571640625,-0.051552492582798,0.1334144909724593,0.3668769176274538
1684167994965183200,6.167183349609375,0.05229834251403808,0.23948826281577348,0.5607680891335011
1684167994975201000,6.177200927734375,0.10063771826922893,0.27388386889249083,0.6170461489334702
1684167994985220000,6.18722021484375,0.15666121878623962,0.18567220921516417,0.6340680108830332
1684167994995238400,6.19723828125,0.08786708402335643,-0.10082710336148738,0.550143234744668
1684167995005257200,6.20725732421875,-0.19487024567127226,-0.43253129305988547,0.3524740060046315
1684167995015275300,6.217275146484375,-0.4359598062038421,-0.6790516464695334,0.18369389487951993
1684167995025294300,6.22729443359375,-0.46116497460901734,-0.7738330399259924,0.22315116825997827
1684167995035312000,6.23731201171875,-0.38422786540091036,-0.7076791905388236,0.31782325612306594
1684167995045331200,6.247331298828125,-0.4528115722835064,-0.47809623566567894,0.26983137863129375
1684167995055349200,6.257349365234375,-0.5709633199334144,-0.08268558973222971,0.09529255784898996
1684167995065368000,6.2673681640625,-0.6134200673907995,0.33458120643943545,-0.06520283227264881
1684167995075386400,6.277386474609375,-0.5134820218235254,0.7014253908410668,-0.22538404187858102
1684167995085405400,6.287405517578125,-0.3354185340464115,0.9696627782791852,-0.3880506385594606
1684167995095423200,6.29742333984375,-0.25222528705298897,1.03133889773041,-0.5848287636786699
1684167995105442300,6.3074423828125,-0.31249709266424175,0.8890317829892038,-0.6952896645650267
1684167995115460000,6.317460205078125,-0.4575695804655552,0.7047007592499256,-0.6910936741799115
1684167995125479200,6.327479248046875,-0.6389017146497964,0.6303650647118687,-0.5889750697031617
1684167995135497200,6.337497314453125,-0.7751157732129097,0.6561848578840493,-0.4603106958672404
1684167995145516000,6.34751611328125,-0.7515420054018497,0.7471940393254161,-0.24557547377496958
1684167995155534300,6.357534423828125,-0.723102092859149,0.8202738885834813,0.01986030024588108
1684167995165552000,6.36755224609375,-0.7040858422219752,0.703407504568994,0.1806307079166174
1684167995175571200,6.3775712890625,-0.634818244728446,0.4167477407336235,0.23195436017960308
1684167995185589200,6.38758935546875,-0.6250427006453275,0.04674567682296037,0.14360095394402742
1684167995195608000,6.397608154296875,-0.5944517475485801,-0.3449880341634154,-0.015411211882531643
1684167995205626400,6.40762646484375,-0.4522328956127166,-0.6490797020539641,-0.13566022407263517
1684167995215645400,6.4176455078125,-0.17205810988247394,-0.8547393450260162,-0.23496172530204057
1684167995225663200,6.427663330078125,0.0863695389419794,-0.8741615461155772,-0.4510229353010654
1684167995235682300,6.437682373046875,0.3278127352178097,-0.7601695484936237,-0.6823129863530397
1684167995245700400,6.447700439453125,0.5636065274298191,-0.49249125624299045,-0.8729647375464439
1684167995255719200,6.45771923828125,0.7611193965643643,-0.13186492344290018,-0.9840995921716094
1684167995265737200,6.4677373046875,0.9500403784424066,0.23659575624465942,-1.052016359578073
1684167995275756300,6.47775634765625,1.1170558179825543,0.5010825589776039,-1.1242238099157809
1684167995285774300,6.4877744140625,1.2301438525021076,0.5901166409537196,-1.1912208321288227
1684167995295793400,6.49779345703125,1.3364865044146776,0.46919659763425586,-1.2559130845308304
1684167995305811200,6.507811279296875,1.4066110109984873,0.16950433374643326,-1.134395367579162
1684167995315830300,6.517830322265625,1.2900865722894668,-0.14348346504420043,-0.8223542019888758
1684167995325848300,6.527848388671875,0.965192939388752,-0.3316594737738371,-0.52659372459203
1684167995335867100,6.5378671875,0.5524877520442009,-0.31856472214013337,-0.2985129909753799
1684167995345885200,6.54788525390625,0.22142565964162347,-0.11030044962763785,-0.045858957116305825
1684167995355904300,6.557904296875,0.0385205770522356,0.18676292706131933,0.2443713586822152
1684167995365922300,6.56792236328125,-0.04370703977942467,0.43448476521521806,0.48286534976363177
1684167995375940400,6.5779404296875,-0.13105799097418785,0.6116451666727661,0.6352180577009916
1684167995385959200,6.587959228515625,-0.33453765955865383,0.7065174532830715,0.6859376065909862
1684167995395977200,6.597977294921875,-0.5871569143652916,0.7023860525667667,0.67579410597831
1684167995405996300,6.607996337890625,-0.8359469662725925,0.6561591389209032,0.6864119461044669
1684167995416014000,6.61801416015625,-1.0519728126972914,0.6439888086557388,0.7416907657340168
1684167995426033200,6.628033203125,-1.2213210790991782,0.6813496942788362,0.835908680088818
1684167995436051200,6.63805126953125,-1.331448510247469,0.7926397394657134,0.9015554567366838
1684167995446070300,6.6480703125,-1.2553338233381508,0.8158020038664341,1.0139435262933374
1684167995456088300,6.65808837890625,-0.9711714292764663,0.6801610690161586,1.1818173362284898
1684167995466107100,6.668107177734375,-0.5778507413595915,0.3856432851567864,1.2120894326344132
1684167995476125200,6.678125244140625,-0.204184601983428,0.019542904859781263,1.0964283327564597
1684167995486144300,6.688144287109375,-0.0018529343903064726,-0.30046967800110574,0.8901704316303134
1684167995496162300,6.698162353515625,0.07761047842502594,-0.47400575148165225,0.663033993126452
1684167995506181000,6.70818115234375,0.12728314861059187,-0.44708734941780565,0.4636857252582907
1684167995516199400,6.718199462890625,0.2046586492359638,-0.2498720019251108,0.3283732917100191
1684167995526218200,6.72821826171875,0.2795277199983597,0.03430208257436752,0.18183540753126143
1684167995536236300,6.738236328125,0.2824982602417469,0.29608488704562186,-0.09028174394965172
1684167995546255400,6.74825537109375,0.2833861489921808,0.48103404268324373,-0.395373821054399
1684167995556273200,6.758273193359375,0.35886721417307854,0.5611325385317206,-0.6341995283082127
1684167995566292200,6.768292236328125,0.44689971789121624,0.5209639020115137,-0.8435536418840288
1684167995576310300,6.778310302734375,0.5053600901663303,0.353090384337306,-0.9572098316803574
1684167995586328300,6.788328369140625,0.4383844030022621,0.12500263645797968,-0.9646078329771757
1684167995596347400,6.798347412109375,0.30619711573719977,-0.10555793127566575,-0.864493554060161
1684167995606365200,6.808365234375,0.1955658267199993,-0.29054215822666885,-0.7464630947023629
1684167995616383500,6.818383544921875,0.08104220643937587,-0.36090865687280893,-0.6528101207539438
1684167995626401500,6.828401611328125,0.003416530445218086,-0.2769680986434221,-0.5168623119115829
1684167995636420600,6.838420654296875,0.05836918686032295,-0.1276741937547922,-0.35216917783915996
1684167995646438700,6.848438720703125,0.14402736266255378,0.0016503975555300712,-0.2411512275919318
1684167995656457700,6.858457763671875,0.21475801844596862,0.07092880870401859,-0.19909341632425784
1684167995666475500,6.8684755859375,0.273766087731719,0.07990911075621843,-0.13598171111196278
1684167995676494600,6.87849462890625,0.22534955508708954,-0.011349369271099566,-0.12813245891630648
1684167995686512600,6.8885126953125,0.1784989565849304,-0.27544804946929213,-0.10650427221506834
1684167995696531500,6.898531494140625,0.027452070549130438,-0.48203912807255983,-0.09718407068401574
1684167995706549800,6.9085498046875,-0.1556470733076334,-0.5426297903746367,-0.10863894615620374
1684167995716568800,6.91856884765625,-0.21409575514495371,-0.302144040954113,0.004788987842202186
1684167995726586600,6.928586669921875,-0.17738251977562902,0.1502484291344881,0.18635317721664904
1684167995736605700,6.938605712890625,-0.14537994631528853,0.6268363060638308,0.3061310647636652
1684167995746623500,6.94862353515625,-0.2350590481966734,1.0514292073398828,0.36099253576397894
1684167995756642600,6.958642578125,-0.38134792605042456,1.3383669113337993,0.2796519308999181
1684167995766660600,6.96866064453125,-0.5187462259620428,1.462891993407905,0.19808745415210724
1684167995776679400,6.978679443359375,-0.6866928088724613,1.4302642737865447,0.2184209248676896
1684167995786697700,6.98869775390625,-0.8421610184818505,1.2745289376735687,0.3063610741272568
1684167995796715500,6.998715576171875,-0.968736311084032,1.0331102913171053,0.3927294440254569
1684167995806734600,7.008734619140625,-1.0029524689406155,0.6575552694544196,0.5239931867048144
1684167995816752600,7.018752685546875,-0.9139414755791425,0.2037283826485276,0.5738935281664133
1684167995826771500,7.028771484375,-0.7957306912183761,-0.23275866229981182,0.5785384313628077
1684167995836789500,7.03878955078125,-0.5663087721258402,-0.5683809022247791,0.5432078825235367
1684167995846808600,7.04880859375,-0.2183446447610855,-0.7444631530568003,0.5243757562816143
1684167995856826600,7.05882666015625,0.1695411586254835,-0.836854436506331,0.4903481067344546
1684167995866845700,7.068845703125,0.34035189879536626,-0.8295295004457235,0.26796412345468995
1684167995876863700,7.07886376953125,0.33496728314757346,-0.672403586757183,-0.12944821768999099
1684167995886882600,7.088882568359375,0.23945231471955775,-0.3840592308357358,-0.5333721326857805
1684167995896900600,7.098900634765625,0.2266618067294359,-0.005370002600550651,-0.8231298625364899
1684167995906919700,7.108919677734375,0.3687280984520912,0.350091494782269,-0.9799106160491704
1684167995916937500,7.1189375,0.46794367496371264,0.5673483443066477,-1.1967714519932866
1684167995926956500,7.12895654296875,0.48867549734711646,0.6371814667284488,-1.4769272407621143
1684167995936974600,7.138974609375,0.5723696796000004,0.5416852030009031,-1.585506857946515
1684167995946993700,7.14899365234375,0.7183323942393064,0.32076486253291364,-1.502284677119553
1684167995957011700,7.15901171875,0.891385360378027,0.007488602189719676,-1.1696072584748267
1684167995967030500,7.169030517578125,0.9829226573467255,-0.25061843637824055,-0.765010558784008
1684167995977048600,7.179048583984375,0.9084019616305827,-0.38388416652977464,-0.40824762341380116
1684167995987067600,7.189067626953125,0.6717512603282928,-0.4099430291548371,-0.16592092230170966
1684167995997085700,7.199085693359375,0.4106681285589933,-0.2990069119721651,0.05909428626447916
1684167996007103700,7.209103759765625,0.1901630908936262,-0.08535305537581443,0.26927666735798117
1684167996017122600,7.21912255859375,-0.031412206351757045,0.1673234825760126,0.3840025322124362
1684167996027140600,7.229140625,-0.2657464474052191,0.4284025226920843,0.3607490823969245
1684167996037159700,7.23915966796875,-0.4976718737512827,0.6406283923119306,0.27193974908739327
1684167996047177500,7.249177490234375,-0.6677782650440931,0.7447317408651113,0.2527098556995392
1684167996057196500,7.259196533203125,-0.7133627891331911,0.6645584262147546,0.33978198995292186
1684167996067214800,7.26921484375,-0.6803554225444793,0.5006649180874229,0.4672741051390767
1684167996077233700,7.279233642578125,-0.713351683217287,0.28709406359940765,0.5840063413798808
1684167996087251700,7.289251708984375,-0.8477426180064678,0.12092764210402965,0.6182333128914237
1684167996097270800,7.299270751953125,-0.9957681103944778,0.07609832029640674,0.6751742205142974
1684167996107288600,7.30928857421875,-1.0064233599215746,0.1190019347384572,0.8019508809074759
1684167996117307600,7.3193076171875,-0.8961702565670013,0.17908114038705825,0.7900564449742435
1684167996127325400,7.329325439453125,-0.6962731226444244,0.2165624375194311,0.6163520291894674
1684167996137344500,7.339344482421875,-0.4473334331333637,0.20908961742073295,0.3726604694649577
1684167996147362800,7.34936279296875,-0.2435188335061073,0.17098025151789187,0.12906067967712878
1684167996157381600,7.359381591796875,-0.04342296214103698,0.11470189945697784,-0.05629413415193557
1684167996167399700,7.369399658203125,0.0701309363245964,0.06402998910099268,-0.17955635668337344
1684167996177418800,7.379418701171875,0.13946341574788093,0.06322685602456331,-0.23295506165474653
1684167996187436500,7.3894365234375,0.1750093609035015,0.034971067877113814,-0.3101473146677017
1684167996197455600,7.39945556640625,0.18626491441130638,-0.010616086560487747,-0.4111676025137305
1684167996207473400,7.409473388671875,0.25077976441979405,-0.058520578029751774,-0.45925183446407314
1684167996217492500,7.419492431640625,0.32949966539144515,-0.07894523416012525,-0.4866276249065995
1684167996227510800,7.4295107421875,0.3422673770278692,-0.048583413644134994,-0.533854363244772
1684167996237528600,7.439528564453125,0.28335750741958615,0.06491232489347458,-0.5662292771488427
1684167996247547600,7.449547607421875,0.21957155620753763,0.19470073432326315,-0.562763646864891
1684167996257565400,7.4595654296875,0.15895722076892851,0.3242982973560691,-0.45737931859046216
1684167996267584500,7.46958447265625,0.14366262100338936,0.38893794278800486,-0.268180396553874
1684167996277602600,7.4796025390625,0.10045067126452922,0.34334172826111314,-0.13604513173699379
1684167996287621400,7.489621337890625,0.087629183614254,0.20980974838882682,0.0020581015735864636
1684167996297639700,7.4996396484375,-0.002492401337623596,0.06705313631445169,0.1407344585970044
1684167996307658800,7.50965869140625,-0.1292249303281307,-0.02088672068417072,0.2849143814727664
1684167996317676500,7.519676513671875,-0.26895430353581906,-0.01689706652611494,0.3878109845846891
1684167996327695600,7.529695556640625,-0.3985989205807447,0.053529053352773186,0.4005059232458472
1684167996337713700,7.539713623046875,-0.4607996484279632,0.19074352113008497,0.35148937888145443
1684167996347732500,7.549732421875,-0.44259062252044673,0.3235083160221576,0.25155717853307724
1684167996357750500,7.55975048828125,-0.3764484635710716,0.4251028966248035,0.12948036639392374
1684167996367769600,7.56976953125,-0.355535439401865,0.4490642024487257,0.04201718699634075
1684167996377787600,7.57978759765625,-0.33782091901302336,0.37401656024903057,-0.017367022125422953
1684167996387806700,7.589806640625,-0.30652094086408616,0.20613076761513946,-0.12166092481464147
1684167996397824500,7.599824462890625,-0.2276549094200134,0.00014086977541446686,-0.1959688545629382
1684167996407843600,7.609843505859375,-0.08289455630779266,-0.1469128549709916,-0.24723200881034135
1684167996417861600,7.619861572265625,0.07929097885787487,-0.22498569021075962,-0.33302491690814495
1684167996427879700,7.629879638671875,0.22052140427827835,-0.2106844853967428,-0.39454993745088573
1684167996437898800,7.639898681640625,0.3441992218732834,-0.12397972315102815,-0.4888204587757587
1684167996447916500,7.64991650390625,0.4038169474899769,0.02847673742175102,-0.5709443229719996
1684167996457935600,7.659935546875,0.4520528628706932,0.14877163458019493,-0.6051122577726841
1684167996467953700,7.66995361328125,0.48532092622220513,0.2356803949654102,-0.6571244768217206
1684167996477972500,7.679972412109375,0.5387298603266477,0.21614158175885675,-0.6180526956275105
1684167996487990500,7.689990478515625,0.5616495481431484,0.09033668900728226,-0.4867708327695727
1684167996498009600,7.700009521484375,0.4256646221607923,-0.03159136231094599,-0.3537789511233568
1684167996508027600,7.710027587890625,0.19849661947488784,-0.10701894373893737,-0.22350217365473507
1684167996518046700,7.720046630859375,0.016330372554063798,-0.12131605689972638,-0.05645283184498548
1684167996528064800,7.730064697265625,-0.1350467683494091,-0.050120998474955554,0.1089019810065627
1684167996538083600,7.74008349609375,-0.29827041439116,0.08753361428529023,0.2275292372137308
1684167996548101600,7.7501015625,-0.4339531425565481,0.25268822838962074,0.3107888274416327
1684167996558120700,7.76012060546875,-0.4438549433678388,0.38416035312265157,0.427392176605761
1684167996568138500,7.770138427734375,-0.4115010722517967,0.438679294295609,0.5281517676889896
1684167996578157600,7.780157470703125,-0.40159167265594004,0.4232894174620509,0.5965627483531832
1684167996588175600,7.790175537109375,-0.37829321465492244,0.3119242612123489,0.691062986780703
1684167996598194700,7.800194580078125,-0.4598164826095104,0.1862017860472202,0.714037911915779
1684167996608212700,7.810212646484375,-0.6253630186408757,0.1280509181126952,0.6939210065603256
1684167996618232300,7.820232421875,-0.7046481522798538,0.12094254741221666,0.6275760185152292
1684167996628250400,7.83025048828125,-0.6933762321591377,0.15521920328438282,0.5069450212702155
1684167996638268400,7.840268310546875,-0.5674684635549784,0.20730214948207137,0.32719518784135576
1684167996648287200,7.850287353515625,-0.3482183943867683,0.25597908662855623,0.17577479231804607
1684167996658305300,7.86030517578125,-0.11614333043694496,0.2724342546060681,0.052693479311466215
1684167996668324400,7.870324462890625,0.0421498734652996,0.24730448952466247,-0.04449380624294281
1684167996678342400,7.88034228515625,0.12764672122597695,0.17522037330567836,-0.1558908189356327
1684167996688361500,7.890361572265625,0.10934183372855186,0.1406871123239398,-0.2383312017351389
1684167996698379300,7.900379150390625,0.04790332242548465,0.10411007055491209,-0.3349883259356022
1684167996708398300,7.9103984375,-0.03045885114967823,0.08381342471837996,-0.45690088742375373
1684167996718416400,7.92041650390625,-0.10155600215792655,0.0667892246812582,-0.5926742164820432
1684167996728434400,7.930434326171875,-0.10115852727293968,0.0656280719473958,-0.642516982537508
1684167996738453500,7.94045361328125,0.01212473755776882,0.02736234643906355,-0.574787262135744
1684167996748471300,7.95047119140625,0.20725801807940006,-0.031770518270134926,-0.40192338882833717
1684167996758490400,7.960490478515625,0.3623831133395433,-0.10843260992914437,-0.15487930380553006
1684167996768508400,7.97050830078125,0.31513737803995606,-0.12376841848790644,0.020633038184046743
1684167996778527200,7.98052734375,0.04698854566812515,-0.06870470291376113,0.07977496298253536
1684167996788545300,7.990545166015625,-0.36506080811619757,0.11478256347775459,0.023733050025999545
1684167996798564400,8.000564453125,-0.6207809515476227,0.27961101436764,-0.06910597719103098
1684167996808582400,8.01058251953125,-0.5453653528183698,0.37319559925496576,-0.14023586142510175
1684167996818600400,8.020600341796875,-0.1929173580378294,0.31928923702239986,-0.194495859400928
1684167996828619500,8.03061962890625,0.2335106497108936,0.15976736810803413,-0.271192437851429
1684167996838637300,8.04063720703125,0.47644379228353495,0.01963409027457237,-0.35071167250722646
1684167996848656400,8.050656494140625,0.44905718818604945,-0.010205167672038077,-0.40346448079049585
1684167996858674200,8.060674072265625,0.3670060969650745,0.08044716315567493,-0.37206834879070516
1684167996868693200,8.070693359375,0.3400397641062736,0.20988807432204484,-0.2790940047562122
1684167996878711600,8.080711669921875,0.40248482210338116,0.29643121626526114,-0.25301556064784525
1684167996888730400,8.09073046875,0.47760289919078347,0.29543080705106256,-0.2676736160755157
1684167996898748400,8.10074853515625,0.4305412882864475,0.24553397272080182,-0.24303894103467463
1684167996908767500,8.110767578125,0.18641572105884552,0.15705898593217132,-0.17498598002791405
1684167996918785300,8.120785400390625,0.023033669584989546,0.09320786052942276,0.04500497063547373
1684167996928804400,8.130804443359375,-0.1158446397513151,0.028499241514503955,0.24776304694712162
1684167996938822100,8.140822265625,-0.29266075781583784,0.051013855661451814,0.3200809719219804
1684167996948841200,8.15084130859375,-0.4567448200792074,0.12297639132738113,0.34221798492819067
1684167996958859500,8.160859619140625,-0.5033189397275447,0.19021949725598095,0.36987872979193925
1684167996968878300,8.17087841796875,-0.4801408932358026,0.30530776568204165,0.3717845634132623
1684167996978896400,8.180896484375,-0.4331920950561762,0.36020460025668144,0.3600429799541831
1684167996988915500,8.19091552734375,-0.3602507774859667,0.3669435531228781,0.3639318040862679
1684167996998933200,8.200933349609375,-0.21839900529682635,0.2845277202427387,0.3930564840227365
1684167997008951600,8.21095166015625,-0.1007131215929985,0.09216156634688377,0.36415392240434885
1684167997018970400,8.220970458984375,-0.007878770551085471,-0.11521657098084688,0.2468231357485056
1684167997028988400,8.230988525390625,0.03369184172153473,-0.2239849887356162,0.10889759709239005
1684167997039007500,8.241007568359375,0.022808044135570523,-0.1775909018293023,0.022090543515980242
1684167997049025300,8.251025390625,-0.02650514508783817,-0.024675883834064005,-0.09662965167164803
1684167997059044400,8.26104443359375,-0.08626198691427707,0.16246259854137896,-0.2633648129656911
1684167997069062400,8.2710625,-0.04152209695577621,0.3458756306529045,-0.39211832638978955
1684167997079081200,8.281081298828125,0.072222355645895,0.43905601865351196,-0.4842229018524289
1684167997089099500,8.291099609375,0.21090426562726497,0.42509851271063087,-0.5297542344495654
1684167997099119400,8.301119384765625,0.3385077322334051,0.2961640897616744,-0.5379267272502184
1684167997109137400,8.311137451171875,0.3538537699252367,0.08554507081657647,-0.4869079031527042
1684167997119156500,8.321156494140626,0.2740326297134161,-0.08961509673446416,-0.31834991034567356
1684167997129174500,8.331174560546875,0.17076748555004595,-0.20460575000494718,-0.13334551738947628
1684167997139193300,8.341193359375,0.05019172562360763,-0.23581278917342424,-0.009397358420491218
1684167997149211400,8.35121142578125,-0.11327975769937038,-0.11720832931995391,-0.02043839239478111
1684167997159230500,8.36123046875,-0.21664660867154598,0.10003390715718269,-0.014252397236227989
1684167997169248300,8.371248291015625,-0.25834055506289005,0.3676435180857777,0.06598901421427726
1684167997179267300,8.381267333984376,-0.17450141138136385,0.6068325056940317,0.19975100345015526
1684167997189285400,8.391285400390625,-0.08985796557962894,0.7323577047213912,0.3238186971455812
1684167997199304400,8.401304443359376,-0.09019172757863998,0.6931579132333398,0.3948959744095802
1684167997209322500,8.411322509765625,-0.1863900020956993,0.5753422656700015,0.4173781475916505
1684167997219340300,8.42134033203125,-0.3263818256318569,0.4124880374625325,0.4481564399540424
1684167997229359400,8.431359375,-0.41666473862528797,0.291222541706264,0.4829039282083511
1684167997239377200,8.441377197265625,-0.46287236304879187,0.2739075420290232,0.45728258021771906
1684167997249396200,8.451396240234375,-0.5175742595732212,0.33719577285200353,0.3630655426457524
1684167997259414500,8.46141455078125,-0.4582312592446804,0.46788960668891666,0.3071022478833794
1684167997269433300,8.471433349609375,-0.2566635617613792,0.4749661209464073,0.34102672931700945
1684167997279451400,8.481451416015625,-0.02938216182887554,0.27368805405944585,0.32559418238550425
1684167997289470500,8.491470458984375,0.16103870321810246,-0.056063540266454215,0.2370548981890082
1684167997299488300,8.50148828125,0.22586276530623434,-0.29915245792269707,0.11860913602858782
1684167997309507300,8.51150732421875,0.17233108160495758,-0.3918073607444763,-0.03576981703937054
1684167997319525400,8.521525390625,0.10173428133428096,-0.30570348700135946,-0.14054127411246298
1684167997329544200,8.531544189453125,0.041081367450952526,-0.05433043286353349,-0.2651557880356908
1684167997339562500,8.5415625,0.07558101842403411,0.24824995368123054,-0.40561289099603887
1684167997349581600,8.55158154296875,0.18597791416347026,0.46296062585413456,-0.549033519937098
1684167997359599400,8.561599365234375,0.3899380597412586,0.4821788288041949,-0.6141475048825145
1684167997369618400,8.571618408203125,0.6327870311617851,0.3139870389610529,-0.5812240171849727
1684167997379636200,8.58163623046875,0.8025263427078724,0.07040361578613519,-0.44917701517343517
1684167997389655300,8.5916552734375,0.7598550757169723,-0.12885609701573847,-0.3125076140582561
1684167997399673300,8.60167333984375,0.570050296741724,-0.21849632819145917,-0.20011516058742998
1684167997409692200,8.611692138671875,0.3606616963744163,-0.17555092043429613,-0.11302169128507375
1684167997419710500,8.62171044921875,0.2425648937821388,-0.014104513198137282,0.006271043093502521
1684167997429728300,8.631728271484375,0.29414193628430363,0.21036299835741518,0.06448211678266524
1684167997439747300,8.641747314453125,0.46433366777300833,0.34054566780179735,0.13960282421857118
1684167997449765400,8.651765380859375,0.7105103223115206,0.3703612526118755,0.26563714181184767
1684167997459784200,8.6617841796875,0.806967540025711,0.3596908055156469,0.3407674938589334
1684167997469802500,8.671802490234375,0.804336022478342,0.2879462965145707,0.40449323931634423
1684167997479821600,8.681821533203125,0.6782903067082167,0.22688304826468228,0.4656488420248031
1684167997489839400,8.69183935546875,0.49841655463874335,0.20301438916027545,0.5113540698841214
1684167997499858400,8.7018583984375,0.345880306828022,0.19550328287780283,0.4811527006268501
1684167997509876200,8.711876220703125,0.23794015659093856,0.16305910312980412,0.41020606400519605
1684167997519895300,8.721895263671875,0.21081541830003261,0.09742547822445631,0.3164794402986765
1684167997529913300,8.731913330078125,0.1947773066908121,0.020603812089562416,0.1848676148340106
1684167997539932200,8.74193212890625,0.16880173843502996,-0.037387773630023,0.09511544771641492
1684167997549950500,8.751950439453125,0.13962299022376537,-0.07333265497535467,0.056880994129180906
1684167997559969500,8.761969482421875,0.0816904412150383,-0.0429018608763814,0.07184037059098482
1684167997569987300,8.7719873046875,-0.020756372302770613,0.02663637025207281,0.04746610005199909
1684167997580006400,8.78200634765625,-0.14475626145899295,0.11215835245400667,-0.07984598239213228
1684167997590024400,8.7920244140625,-0.2389367664128542,0.1906552583247423,-0.16669132215231655
1684167997600043300,8.802043212890625,-0.37756197777092454,0.24255028073489665,-0.2894797896921634
1684167997610061300,8.812061279296875,-0.48234337171614167,0.23059943843930958,-0.4098839924439788
1684167997620079900,8.822079833984375,-0.5172860902816057,0.17043109320253133,-0.4473340176552534
1684167997630097700,8.83209765625,-0.46804888890385626,0.10298252782970667,-0.4715612809389829
1684167997640116700,8.84211669921875,-0.3768839323788881,0.011708557972311974,-0.41533699715286493
1684167997650134800,8.852134765625,-0.30023674602806566,-0.028105273760855195,-0.35916239772737024
1684167997660152600,8.862152587890625,-0.3635433892905712,-0.02174947499334812,-0.32866993656903504
1684167997670171600,8.872171630859375,-0.4522749811887741,0.041755905711650845,-0.25214871468544003
1684167997680189700,8.882189697265625,-0.47044484412968157,0.08662760535627603,-0.14352087444514036
1684167997690208800,8.892208740234375,-0.4830447979837656,0.10668372043520212,-0.06094751291573047
1684167997700226800,8.902226806640625,-0.4921364514559507,0.10599018521308898,-0.048346390017867086
1684167997710245600,8.91224560546875,-0.5292483307540417,0.08523615099787711,-0.006521510723233223
1684167997720263700,8.922263671875,-0.5147258844047784,0.05913315697014331,0.026031682357192037
1684167997730282800,8.93228271484375,-0.5314093081802129,0.031069968785345552,0.04042933328300714
1684167997740300500,8.942300537109375,-0.631757688114047,0.030480770720541474,-0.007113923658430576
1684167997750319600,8.952319580078125,-0.7070972989976406,0.09714227736890316,-0.019536767379939556
1684167997760337700,8.962337646484375,-0.6907827085345983,0.19889701696932316,0.0059612464919686315
1684167997770356700,8.972356689453125,-0.5184153865724802,0.31460458633750676,0.05214110612571239
1684167997780374800,8.982374755859375,-0.3288257116526365,0.3868643513843417,0.06662497403025627
1684167997790393600,8.9923935546875,-0.21271745252907276,0.3776987558931112,-0.006687514939904213
1684167997800411600,9.00241162109375,-0.19605214893221853,0.29526801770478484,-0.07844634472727775
1684167997810430700,9.0124306640625,-0.1892003833413124,0.16950842539966104,-0.07876374011337757
1684167997820448500,9.022448486328125,-0.21914777783751485,0.024421032290160655,-0.021958149307966232
1684167997830467600,9.032467529296875,-0.2505301735728979,-0.10384937379211187,-0.01179272912442684
1684167997840486000,9.04248583984375,-0.3367646879583597,-0.14096446796059608,-0.07523673503100872
1684167997850504700,9.052504638671875,-0.3439011157095432,-0.05691168152838945,-0.1404340143457055
1684167997860522800,9.062522705078125,-0.20808336298763752,0.08135141851902007,-0.1249772097557783
1684167997870541800,9.072541748046875,-0.029381577306985852,0.1728539364352822,-0.12131342655122279
1684167997880559600,9.0825595703125,0.1631669474184513,0.1758268147662282,-0.060849897760152816
1684167997890578000,9.092577880859375,0.2900648961037397,-0.0035530163064599034,-0.08358750700801611
1684167997900596700,9.1025966796875,0.21113924342691898,-0.20045739815384148,-0.14408376902490855
1684167997910614800,9.11261474609375,-0.015007014995813368,-0.31169162150025365,-0.2509647655978799
1684167997920633900,9.1226337890625,-0.23819793074429033,-0.340701150624454,-0.29354250908643004
1684167997930651600,9.132651611328125,-0.3093617172479629,-0.23203765454888342,-0.238280640591681
1684167997940670700,9.142670654296875,-0.2577273916006088,-0.012857435746490955,-0.2047679548293352
1684167997950688500,9.1526884765625,-0.11498305448591709,0.28346798205673696,-0.16550737306475638
1684167997960707600,9.16270751953125,0.06239420459270477,0.5515779437229037,-0.13115794421732424
1684167997970726000,9.172725830078125,0.20913959404230117,0.6939920259699225,-0.044382454822957516
1684167997980744700,9.18274462890625,0.24894085855484008,0.6630418841719627,0.08333908520489931
1684167997990762800,9.1927626953125,0.1853477995663881,0.4769742458984256,0.17244827824383974
1684167998000781800,9.20278173828125,-0.0059463411837816236,0.1952788264721632,0.19810703563541174
1684167998010799600,9.212799560546875,-0.1214963819026947,-0.10229220747798681,0.2566626849785447
1684167998020818700,9.222818603515625,-0.12572539777457714,-0.3220145703330636,0.34452041665166616
1684167998030836500,9.23283642578125,-0.013891747230291365,-0.3531321776524186,0.47826779284030196
1684167998040855600,9.24285546875,0.1473293268173933,-0.20465075819045303,0.5184501656249165
1684167998050873900,9.252873779296875,0.3200467773914337,0.060791737832128996,0.5354714430525899
1684167998060892700,9.262892578125,0.4144710279732942,0.3405228714480996,0.5236790061891079
1684167998070910700,9.27291064453125,0.3695078506529331,0.49875060889869927,0.4680711007356643
1684167998080929800,9.2829296875,0.31591888380646704,0.5125263285338878,0.40101416502892967
1684167998090947600,9.292947509765625,0.22832301793992518,0.3518132040083408,0.317095818631351
1684167998100965600,9.302965576171875,0.10105565142035483,0.07636077062487602,0.1494376972734928
1684167998110984700,9.312984619140625,-0.010468787044286727,-0.14655834244489668,0.07776070055067538
1684167998121002800,9.323002685546875,-0.07887889092564582,-0.290646203123033,0.05787906525582075
1684167998131021800,9.333021728515625,-0.11081365984678268,-0.3046364422917366,0.073934420260787
1684167998141039600,9.34303955078125,-0.05215571917295456,-0.18315116630494593,0.09255582636147737
1684167998151058700,9.35305859375,-0.002946574845910072,0.0346320451810956,0.06267623640447854
1684167998161076700,9.36307666015625,0.06462532464563846,0.23966478842645883,-0.008919804036617279
1684167998171095600,9.373095458984375,0.18198972131013869,0.40344577609002585,-0.04897738139778375
1684167998181113600,9.383113525390625,0.2716512875348329,0.5289058009266853,-0.07957388745248317
1684167998191132700,9.393132568359375,0.17248948703706263,0.5797121513172984,-0.13388064717948436
1684167998201150700,9.403150634765625,-0.04857552259862423,0.5857055465131997,-0.24784254192411898
1684167998211169800,9.413169677734375,-0.3523410272747278,0.48421325724124903,-0.33292993210107086
1684167998221187600,9.4231875,-0.6747849289357661,0.27753216226696964,-0.3577829260677099
1684167998231206700,9.43320654296875,-0.8125164063245057,0.08528028240054845,-0.3174529615059495
1684167998241224700,9.443224609375,-0.7412094119578599,0.013776011896133422,-0.18211919290870426
1684167998251243500,9.453243408203125,-0.6634019496560096,0.012484218519926071,-0.16518734733015297
1684167998261261800,9.46326171875,-0.6784779382348061,-0.03976765450388193,-0.2854837057933211
1684167998271280600,9.47328076171875,-0.7314741998851298,-0.13044219716340302,-0.4747805352464318
1684167998281298700,9.483298583984375,-0.8143716788023709,-0.23484628222882747,-0.5431590749457478
1684167998291317800,9.49331787109375,-0.8792465942949056,-0.36201866394132376,-0.5201397261470556
1684167998301335800,9.503335693359375,-0.8877695079684257,-0.45546004096567627,-0.4441141788259148
1684167998311354600,9.513354736328125,-0.8596972596943377,-0.5563315679907799,-0.42882074810415505
1684167998321372700,9.52337255859375,-0.7754600566059351,-0.5999579437494278,-0.48455403350293635
1684167998331391700,9.533391845703125,-0.6317524274170399,-0.5062225522145629,-0.4722106847584247
1684167998341409800,9.543409912109375,-0.37694822978675363,-0.324124986615777,-0.4254436728864908
1684167998351427800,9.553427734375,-0.06907470526993274,-0.07512129195779561,-0.3934937063962221
1684167998361446700,9.56344677734375,0.2206757180571556,0.1650052687615156,-0.33574206691235303
1684167998371464700,9.573464599609375,0.4778016366332769,0.30016338853091,-0.34530484502762554
1684167998381483800,9.58348388671875,0.6531248857915402,0.3544301085084677,-0.2342909864336252
1684167998391501600,9.59350146484375,0.6529892767131328,0.33153175574094057,-0.08488602238595486
1684167998401520600,9.603520751953125,0.3405149804025888,0.2991100800856948,0.012410568761825561
1684167998411538700,9.61353857421875,-0.08167991982102393,0.32946927025318146,0.055587447187304496
1684167998421557800,9.623557861328125,-0.35234862605929373,0.34218086778819556,0.14011486539393664
1684167998431575800,9.633575927734375,-0.4630471350938081,0.3394976200535893,0.24221827230155465
1684167998441594600,9.6435947265625,-0.462191395047307,0.3041822687834501,0.2585854697346687
1684167998451612700,9.65361279296875,-0.33413550849854945,0.19205898764282464,0.22610446510761975
1684167998461631700,9.6636318359375,-0.19257950438559054,0.002409399229288101,0.2052019623324275
1684167998471649500,9.6736494140625,-0.22148352730870247,-0.11433628101497888,0.26599457694739104
1684167998481668600,9.683668701171875,-0.3850315829992294,-0.12117401808053255,0.38101241048574447
1684167998491686700,9.693686767578125,-0.5317383940041065,-0.07073679326325655,0.4072472141996026
1684167998501705700,9.703705810546875,-0.6147124452888966,-0.053152328994870185,0.3443462291285395
1684167998511723800,9.713723876953125,-0.516701568391919,-0.11808481989353894,0.24386194785535334
1684167998521742600,9.72374267578125,-0.2595803259909153,-0.2372039512708783,0.14084405645132064
1684167998531760600,9.7337607421875,-0.11313771888017654,-0.3483180553689599,0.01604571039378643
1684167998541779700,9.74377978515625,-0.12571253829300402,-0.2826923215091228,-0.10397475373744965
1684167998551797500,9.753797607421875,-0.15415771153271196,-0.010649696569144725,-0.2401952420413494
1684167998561815800,9.76381591796875,-0.12982406526505946,0.3151791713550687,-0.1937269208550453
1684167998571835000,9.7738349609375,0.033067572343349456,0.6547463495135307,-0.2531163906738162
1684167998581852700,9.783852783203125,0.3838040870308876,0.9026622489348053,-0.2824488681420684
1684167998591871700,9.793871826171875,0.7717956888794899,0.9937804437085985,-0.38098727604448795
1684167998601889500,9.8038896484375,0.9751865101367234,0.9651879709526896,-0.5539426270276308
1684167998611908600,9.81390869140625,0.8125801192104816,0.8186693759962916,-0.6234785200685262
1684167998621927000,9.823927001953125,0.42356443501114843,0.5449725541085004,-0.557672168944776
1684167998631945700,9.83394580078125,0.029139585244655607,0.1866688190370798,-0.43094694647789
1684167998641964000,9.843964111328125,-0.21871640068292617,-0.14705810866057872,-0.27420389462709427
1684167998651983000,9.853983154296875,-0.2715957579553127,-0.3960045201733708,-0.09007102380841969
1684167998662001000,9.8640009765625,-0.20974691228568554,-0.463474420595169,0.09875555778443813
1684167998672020000,9.87402001953125,-0.12838380332887173,-0.43908086083382364,0.20587007085233924
1684167998682037800,9.884037841796875,-0.05716682533323764,-0.35895664602220057,0.2630234521821141
1684167998692056800,9.894056884765625,0.06561141307353972,-0.29680092636048794,0.20665186887979506
1684167998702075000,9.904074951171875,0.2396773556470871,-0.2906622774749994,0.08582914845496416
1684167998712094000,9.914093994140625,0.41643443700075145,-0.29455431647747754,-0.06872896057218313
1684167998722112000,9.924112060546875,0.5935597671449184,-0.2617529938548803,-0.2156909153819084
1684167998732131000,9.934131103515625,0.65333005297482,-0.14473404962718486,-0.31292759303599593
1684167998742148900,9.94414892578125,0.538531707406044,0.06093903734833002,-0.3790340961501002
1684167998752168000,9.95416796875,0.2529179454922676,0.36145927649289367,-0.36771921367049215
1684167998762186000,9.96418603515625,-0.05489595779180526,0.6411886565431952,-0.3426750810459256
1684167998772204800,9.974204833984375,-0.21326281145215034,0.8442968614667653,-0.23431962800621986
1684167998782223000,9.98422314453125,-0.1528887145102024,0.9491121576815843,-0.11464081691950559
1684167998792242200,9.9942421875,0.07410276256501674,0.8325318971320986,-0.006781915225088596
1684167998802260000,10.004260009765625,0.15262100348472593,0.5664017111063003,0.012205109317600726
1684167998812278000,10.014278076171875,0.023334113836288452,0.20072861631065606,0.03343056043684482
1684167998822296800,10.024296875,-0.17065993352234363,-0.12361410470902919,0.09701075994372367
1684167998832315000,10.03431494140625,-0.35829905889630315,-0.3039280017614364,0.18926468074917793
1684167998842334000,10.044333984375,-0.5291764345616102,-0.29809067391008137,0.26649171281456946
1684167998852352000,10.05435205078125,-0.6459148082822561,-0.112070089648664,0.25542554439902304
1684167998862371000,10.06437109375,-0.6155442199379205,0.11532032361626625,0.18496669129431248
1684167998872388900,10.074388916015625,-0.3578963233143091,0.2709656433582306,0.14627718741595744
1684167998882408000,10.084407958984375,-0.0506809704452753,0.25430764628499747,0.07824117754399776
1684167998892426000,10.094426025390625,0.0864917040169239,0.07756517797857522,-0.10393851338028907
1684167998902444800,10.10444482421875,-0.013953706550598143,-0.05685673647075891,-0.24429566309750078
1684167998912462800,10.114462890625,-0.2379512625068426,-0.09699263976514338,-0.29067192208617926
1684167998922482000,10.12448193359375,-0.4129799126327038,-0.005610241097211838,-0.2557350487396121
1684167998932500000,10.1345,-0.39082887110114095,0.11531038674414157,-0.20929273877739904
1684167998942519000,10.14451904296875,-0.0844090525239706,0.17674948256909845,-0.2548749247789383
1684167998952537000,10.154537109375,0.22498539794981479,0.14720862304717303,-0.34995179405063387
1684167998962556000,10.164555908203125,0.4543605552911758,0.07065408341586589,-0.4127782525807619
1684167998972574000,10.174573974609375,0.5464058017820119,-0.0037508769661188123,-0.3701639764741063
1684167998982593000,10.184593017578125,0.45414194410443304,-0.0669870853409171,-0.2384299859344959
1684167998992610800,10.19461083984375,0.22216274174451828,-0.07374883456081152,-0.1544008726388216
1684167999002630000,10.2046298828125,-0.07321896546781062,0.003186228820681572,-0.13635814320892095
1684167999012648000,10.21464794921875,-0.26189970884919167,0.17320727991759777,-0.1507452727407217
1684167999022667000,10.2246669921875,-0.26325404606759545,0.3226119517043233,-0.11850333756655454
1684167999032685000,10.23468505859375,-0.09840893630385399,0.448041581402719,-0.030802257759869098
1684167999042702800,10.244702880859375,0.12241934196650982,0.5215341031149029,0.09128244542479515
1684167999052722000,10.254721923828125,0.14004618407189845,0.47599809434264895,0.1830734248936176
1684167999062740000,10.264739990234375,0.004199789777398109,0.3485544944733381,0.19483488209694622
1684167999072759000,10.274759033203125,-0.17059388254880903,0.18857552944123743,0.26688860317766666
1684167999082777000,10.284777099609375,-0.30883038685023784,0.08513327514529227,0.40290333977639675
1684167999092796000,10.2947958984375,-0.3705845399737358,0.0800020497366786,0.546560407821834
1684167999102814000,10.30481396484375,-0.41724224625229833,0.10505904184281825,0.5823541902586817
1684167999112833000,10.3148330078125,-0.3373649919390678,0.15578122108131645,0.6136506612762809
1684167999122850800,10.324850830078125,-0.2196948903262615,0.18615151716470718,0.5860784714788199
1684167999132870000,10.334869873046875,-0.13836626816093922,0.18898177215456963,0.4729191252887249
1684167999142888000,10.344887939453125,-0.14983634120225905,0.1554614876076579,0.3678112758681178
1684167999152907000,10.354906982421875,-0.3055693392276764,0.10359452224820852,0.24853227775394915
1684167999162925000,10.364925048828125,-0.45707741303443905,0.04894406365007162,0.13510872766971588
1684167999172944000,10.37494384765625,-0.49988954980075356,-0.007770049479603767,0.03739975632876157
1684167999182962000,10.3849619140625,-0.4279577015340328,-0.07275719317495823,-0.0793742732271552
1684167999192981000,10.39498095703125,-0.3392272786796093,-0.1392538646504283,-0.1624769193276763
1684167999202998800,10.404998779296875,-0.1994482211112976,-0.18666472738385198,-0.2416980478197336
1684167999213017900,10.415017822265625,-0.07915361621379852,-0.2213163540482521,-0.3478077677592635
1684167999223036200,10.4250361328125,-0.01923369278013706,-0.2651838450863957,-0.4487003375723958
1684167999233055000,10.435054931640625,0.012898060017824172,-0.33789719911962746,-0.5110998028621078
1684167999243073000,10.445072998046875,0.07687164275646209,-0.3979799118995666,-0.5506397860899567
1684167999253092000,10.455092041015625,0.09781447754204273,-0.4037330685988068,-0.5894251515582204
1684167999263110000,10.46510986328125,0.10088146389722824,-0.300750833030045,-0.6143757606804371
1684167999273128000,10.4751279296875,0.15354045641720293,-0.08767126919031143,-0.5763461820155382
1684167999283146800,10.485146728515625,0.17263386394381522,0.13486352073699234,-0.5355772415146232
1684167999293165000,10.4951650390625,0.13037293131947517,0.28911650933772326,-0.5316197360605001
1684167999303184100,10.50518408203125,0.0407078579634428,0.3378966145977378,-0.5206771940246224
1684167999313202000,10.515201904296875,-0.050780339166522026,0.3079869217634201,-0.44220103868097066
1684167999323221000,10.525220947265625,-0.10353577779829501,0.21137568253129718,-0.2959273583963513
1684167999333238800,10.53523876953125,-0.11455986063778399,0.0783852621898055,-0.12157441557496786
1684167999343257900,10.5452578125,-0.11637129397392272,0.04446633371412754,0.057499126027524466
1684167999353276000,10.55527587890625,-0.035839959666132924,0.12814590291976927,0.3047910483315587
1684167999363294700,10.565294677734375,-0.019043723165988923,0.31385435249209404,0.5569663587629795
1684167999373313000,10.57531298828125,-0.028742694881558416,0.5056079274475574,0.7114242222860455
1684167999383332000,10.58533203125,-0.020676292803883552,0.596236877399683,0.6896323694556951
1684167999393350000,10.595349853515625,-0.005622516056895256,0.6551663284912705,0.5170344536080956
1684167999403369000,10.605368896484375,0.03045826662778854,0.6236591373324394,0.2976055207416415
1684167999413387000,10.615386962890625,0.058415948611497875,0.5274456652462483,0.14693272871524093
1684167999423405800,10.62540576171875,0.023714637586474418,0.43222938750386236,0.035975861005485055
1684167999433424000,10.635423828125,-0.1756494123727083,0.3604448387533426,-0.07681465187221766
1684167999443443000,10.64544287109375,-0.4835241059333086,0.35520372322946786,-0.2369683889493346
1684167999453461000,10.6554609375,-0.7089730297416448,0.4392378049612045,-0.4011243474051356
1684167999463480000,10.66547998046875,-0.7240110243976116,0.6101172264531255,-0.4338654642730951
1684167999473497900,10.675497802734375,-0.5307400306165218,0.8902990264460444,-0.33657822547554966
1684167999483517000,10.685516845703125,-0.23995909519791603,1.1044368671670555,-0.18089841894209382
1684167999493535000,10.695534912109375,0.09100655109286308,1.0728203704148531,-0.07695698295235634
1684167999503553800,10.7055537109375,0.3191746707320213,0.723715548582375,-0.011028759014606475
1684167999513572000,10.715572021484375,0.2889303391158581,0.11416267801374197,0.0001885083094239235
1684167999523591200,10.725591064453125,0.09925941565334796,-0.4767027354806661,0.029259996753931043
1684167999533609000,10.73560888671875,-0.17636954334080218,-0.8540975399911404,0.18636925156861542
1684167999543627000,10.745626953125,-0.4267594316601753,-1.0383774180650711,0.4234373015001416
1684167999553645800,10.755645751953125,-0.5843453640758991,-1.0483864786431192,0.6719669489055872
1684167999563664000,10.765663818359375,-0.6256985342055559,-0.9338467840105295,0.8963736701846122
1684167999573683000,10.775682861328125,-0.6098538993418217,-0.7001607777327299,0.9410346496880054
1684167999583701000,10.785700927734375,-0.5871083990484476,-0.37843408443033694,0.8003837777212262
1684167999593720000,10.795719970703125,-0.511494647398591,-0.036442601734399796,0.5985881167009472
1684167999603737900,10.80573779296875,-0.25553894164562224,0.28640958846658465,0.4203399200066924
1684167999613757000,10.8157568359375,0.168930333250761,0.49437575481534,0.25606208873689174
1684167999623774500,10.8257744140625,0.634055443662405,0.5588192931532859,0.006602759265899658
1684167999633793500,10.83579345703125,0.9003314678996801,0.4286003833517432,-0.28032500785589215
1684167999643811600,10.8458115234375,0.9313339244067669,0.18642478114813565,-0.5788017584741115
1684167999653830700,10.85583056640625,0.8080226020365953,-0.025772446899116036,-0.7153609772130847
1684167999663848700,10.8658486328125,0.524025627669692,-0.1435407481893897,-0.7336199797421693
1684167999673867800,10.87586767578125,0.16225860040187834,-0.16980594704151153,-0.6131248838365078
1684167999683885600,10.885885498046875,-0.11600538327097892,-0.12581599866747856,-0.47654023839533327
1684167999693904600,10.895904541015625,-0.12865794409513473,-0.06421499027907848,-0.4384963389441371
1684167999703922400,10.90592236328125,0.09350129051804543,-0.000573123712837696,-0.357909475056827
1684167999713941500,10.91594140625,0.3918137904852628,0.027831717516481874,-0.2016132901906967
1684167999723959800,10.925959716796875,0.5576677850306033,0.06819178495556116,0.03484802601933479
1684167999733978600,10.935978515625,0.43714404755234715,0.1632534566581249,0.13741408200263977
1684167999743996700,10.94599658203125,0.11068974120616912,0.30488924800902606,0.1768105651065707
1684167999754015700,10.956015625,-0.10236264236569403,0.3662356971144676,0.257596458697319
1684167999764033500,10.966033447265625,-0.17100012526214123,0.4074330921605229,0.37181349724680185
1684167999774051600,10.976051513671875,-0.2161182008832693,0.35990357148349283,0.40650253331214187
1684167999784070700,10.986070556640625,-0.28179917206168176,0.28359190069735046,0.3607654490098357
1684167999794088700,10.996088623046875,-0.42583413350880145,0.22064152352660893,0.24991087263077497
1684167999804107800,11.006107666015625,-0.4408674519896507,0.2162310136079788,0.19788170244693756
1684167999814125600,11.01612548828125,-0.3644803778797388,0.3280059197023511,0.21893442734777926
1684167999824144600,11.02614453125,-0.3450251513034105,0.4928779174730181,0.2987584901690483
1684167999834162700,11.03616259765625,-0.34760815353393554,0.6106976566895842,0.326918708987534
1684167999844181500,11.046181396484375,-0.33406595039367676,0.553119620206952,0.23217560171484947
1684167999854199600,11.056199462890625,-0.2720101839751005,0.3032403117582202,0.02396510521620512
1684167999864218600,11.066218505859375,-0.131111766988039,-0.026681378437578677,-0.12110445997565984
1684167999874236700,11.076236572265625,0.008407762861251831,-0.3375187211960554,-0.24157997439801693
1684167999884255700,11.086255859375,0.0919686741232872,-0.5136234761208296,-0.3111342798784375
1684167999894273500,11.0962734375,0.1406499951839447,-0.5812018053531647,-0.37034868539124727
1684167999904292600,11.106292724609375,0.22946166658103465,-0.5350760139942169,-0.40221097359806296
1684167999914310700,11.116310546875,0.2847077529847622,-0.35926644262373447,-0.4386220111504197
1684167999924329500,11.12632958984375,0.3118003425717354,-0.0808560362175107,-0.528102667850256
1684167999934347500,11.136347412109375,0.36190672799944873,0.16049071394652129,-0.6232742296680808
1684167999944366600,11.14636669921875,0.40331075153350826,0.2762348159328103,-0.7037099946469069
1684167999954384600,11.156384521484375,0.39072307263910766,0.294294204236567,-0.7656655155614018
1684167999964403700,11.16640380859375,0.1793406681060791,0.2448053661853075,-0.7996013951718807
1684167999974421500,11.17642138671875,-0.04129062628746032,0.18337357688397168,-0.7404764215081929
1684167999984440600,11.186440673828125,-0.17326047140955925,0.1737684209316969,-0.5832870871946215
1684167999994458600,11.196458740234375,-0.1278957275509834,0.20169249290674923,-0.3517757946074009
1684168000004476700,11.2064765625,0.008861936369538307,0.20796061339080332,-0.14663520707339048
1684168000014495500,11.21649560546875,0.10576572880744933,0.19338000711351633,0.058825113934278486
1684168000024513800,11.226513671875,0.13769815964102744,0.12121376556903123,0.20968232261687517
1684168000034532600,11.23653271484375,0.04166472029685974,0.04976093299090862,0.35411680477559565
1684168000044550700,11.246550537109375,-0.11435469345450401,0.010010229621827602,0.45627866387218236
1684168000054569700,11.25656982421875,-0.3353659270763397,0.003660568334162235,0.49583121432065963
1684168000064587500,11.26658740234375,-0.5449181935727596,0.061249418471753594,0.4703931139424443
1684168000074606600,11.276606689453125,-0.7071025596946477,0.17839841881990431,0.39565351477861405
1684168000084624600,11.286624755859375,-0.6771417211949825,0.3287783653795719,0.3495847143039107
1684168000094643700,11.296643798828125,-0.47663960711658,0.45964229508638377,0.3178802470073104
1684168000104661800,11.306661865234375,-0.24158581961691378,0.5090101371064781,0.277792566768825
1684168000114680600,11.3166806640625,-0.09188333392739295,0.46015579756647346,0.18401450513601303
1684168000124698600,11.32669873046875,-0.05849076741337776,0.34266251382529733,0.12134002229720353
1684168000134717700,11.3367177734375,-0.12610416795909404,0.1837356881946325,0.06291442907452582
1684168000144735500,11.346735595703125,-0.1462660815000534,0.05156652110815048,-0.04174129266440868
1684168000154754600,11.356754638671875,-0.0816857650399208,-0.05761778397113084,-0.12861702756285667
1684168000164772600,11.366772705078125,0.0428472080796957,-0.1615790937051177,-0.20531506731808186
1684168000174791700,11.376791748046875,0.2017220112621784,-0.22231997813284396,-0.2692991714507341
1684168000184809700,11.386809814453125,0.29619477716088294,-0.219645498226583,-0.31956162422299383
1684168000194828500,11.39682861328125,0.30969255663752554,-0.1720484652712941,-0.33282442589998246
1684168000204846600,11.4068466796875,0.28737667993307114,-0.020862463025748727,-0.2839180639117956
1684168000214865700,11.41686572265625,0.19909867702126502,0.12417027728706598,-0.25909341925680635
1684168000224883500,11.426883544921875,0.046101825961470604,0.21462562423795462,-0.2564063721299171
1684168000234901800,11.43690185546875,-0.057709261646866794,0.1991404703363776,-0.22230594960749148
1684168000244920800,11.4469208984375,-0.09624562079012393,0.10502338600754738,-0.1257379649952054
1684168000254938600,11.456938720703125,-0.08637129250764847,0.024988310784101485,0.014157120168209076
1684168000264957700,11.466957763671875,-0.14242109650969503,-0.0016693945169448852,0.1516363763615489
1684168000274975500,11.4769755859375,-0.24793548090457915,0.02616144621670246,0.25544863301366566
1684168000284994600,11.48699462890625,-0.3170890966296196,0.11061024622917175,0.3300754194527864
1684168000295012600,11.4970126953125,-0.32480595461726186,0.15961188528537748,0.3927957872599363
1684168000305031400,11.507031494140625,-0.32399580727815624,0.21509265722781418,0.36943507767766715
1684168000315049700,11.5170498046875,-0.38158290385007854,0.2144014600932598,0.2868245990082621
1684168000325068800,11.52706884765625,-0.3972288012713194,0.16061054093390703,0.20805238332748413
1684168000335086600,11.537086669921875,-0.29871698911488054,0.11868453935235738,0.19848229868859052
1684168000345105700,11.547105712890625,-0.15274141499400137,0.07378010648190975,0.1377133572101593
1684168000355123500,11.55712353515625,-0.08663666544556617,0.0310723068729043,0.02782674908041954
1684168000365142500,11.567142578125,-0.11365911240577697,-0.04188683861494064,-0.11289806490540504
1684168000375160600,11.57716064453125,-0.1673322504043579,-0.1009223804295063,-0.2604053786382079
1684168000385179400,11.587179443359375,-0.25433658011853694,-0.09067746526896953,-0.41135698760598893
1684168000395197700,11.59719775390625,-0.31589199579954147,-0.05855038864612579,-0.521237458255887
1684168000405216800,11.607216796875,-0.31179215926527976,-0.06821867296248674,-0.6531266393572092
1684168000415234600,11.617234619140625,-0.2606190213888883,-0.06712561702877283,-0.7964324097469448
1684168000425253600,11.627253662109375,-0.18306407254338264,-0.05755699369460344,-0.897140562903881
1684168000435271400,11.637271484375,-0.03232581406533718,-0.011773439902067183,-0.955080710697174
1684168000445290500,11.64729052734375,0.07099252158999443,0.12227759540826082,-0.9859861365705728
1684168000455308800,11.657308837890625,0.15643617785871028,0.28223610217422246,-0.9816218038812279
1684168000465326600,11.66732666015625,0.242874105861783,0.37979017521440983,-0.9717024674132466
1684168000475345700,11.677345703125,0.4471241742968559,0.3753358261540532,-0.8661617795333266
1684168000485363700,11.68736376953125,0.6348340268194675,0.22155659254491328,-0.641032296937704
1684168000495382500,11.697382568359375,0.75176529276371,0.019346797765791415,-0.3516056987375021
1684168000505400600,11.707400634765625,0.70504679620862,-0.1372340492606163,-0.04614449605941772
1684168000515419600,11.717419677734375,0.5115729733318091,-0.22571692709475755,0.24184534733593463
1684168000525437700,11.727437744140625,0.25100305178165433,-0.2004649969384074,0.5325304211646318
1684168000535456800,11.737456787109375,0.05397416677176952,-0.04434124602973461,0.7825082215517759
1684168000545474600,11.747474609375,-0.098477909886837,0.16208090574741363,0.9759072256267071
1684168000555493600,11.75749365234375,-0.2986544452726841,0.3866732127264142,1.0705763908803463
1684168000565511700,11.76751171875,-0.4420838420420885,0.5443813102170825,1.0835194590836763
1684168000575530500,11.777530517578125,-0.5209206473916769,0.6431792458385229,1.0919719378694892
1684168000585548500,11.787548583984375,-0.5836813472092152,0.6905120748996734,1.1450284052744508
1684168000595567600,11.797567626953125,-0.600768675610423,0.7020493679583072,1.2208110837504267
1684168000605585700,11.807585693359375,-0.6587070698380469,0.6693707949325441,1.275026365801692
1684168000615604700,11.817604736328125,-0.718534638813138,0.5283659949615598,1.332311849078536
1684168000625623600,11.82762353515625,-0.8362380581736564,0.2994903115749359,1.2579624182760716
1684168000635642600,11.837642578125,-0.936093101632595,0.04929711487144232,1.1153951912939548
1684168000645660400,11.847660400390625,-0.9273264423310756,-0.09268529796004295,0.9479261627674103
1684168000655679500,11.857679443359375,-0.7185977671772241,-0.073738605427742,0.7883034638270735
1684168000665697500,11.867697509765625,-0.2945014172464609,0.02441869420260191,0.6384633232325315
1684168000675715300,11.87771533203125,0.14245032260417936,0.11920184122473,0.4649447854086756
1684168000685734400,11.887734375,0.4244949938595295,0.13870850572735072,0.17999533262252806
1684168000695752400,11.89775244140625,0.48864042603373525,0.08513619775474071,-0.17909312308579683
1684168000705771500,11.907771484375,0.34622926639616486,0.04207125527113676,-0.49723172876834865
1684168000715789600,11.91778955078125,0.1277969433516264,0.06117752227932215,-0.7544283744931221
1684168000725807400,11.927807373046875,0.045591538351774215,0.07560352251678705,-0.969014251242578
1684168000735825700,11.93782568359375,0.1362234109133482,0.08862959282845258,-1.1322151009306312
1684168000745844500,11.947844482421875,0.4467886587321758,0.059874038465321064,-1.2538292639940976
1684168000755862500,11.957862548828125,0.7858627926766872,0.033279461528360844,-1.3746727349460124
1684168000765881600,11.967881591796875,1.0781909575372934,0.049047816285490986,-1.449960031120479
1684168000775899400,11.9778994140625,1.2205337281137705,0.12676526221632956,-1.4208563939720391
1684168000785918500,11.98791845703125,1.1209311981111765,0.2356809794872999,-1.2544319060623645
1684168000795936500,11.9979365234375,0.8586112180233001,0.21233692877888677,-0.9737231595858931
1684168000805955300,12.007955322265625,0.5172685546249151,0.04476882379204034,-0.8281149574726819
1684168000815973600,12.0179736328125,0.1330553022712469,-0.1205249065220356,-0.798159087409079
1684168000825992700,12.02799267578125,-0.19606617745757102,-0.11831044534295797,-0.7345026077955961
1684168000836010500,12.038010498046875,-0.372948931017518,-0.03129676327854395,-0.6047574529856443
1684168000846029600,12.048029541015625,-0.4066565548300743,0.12771218767762182,-0.44647038656324145
1684168000856047400,12.05804736328125,-0.205827693015337,0.25416853007525203,-0.23561989694982766
1684168000866066400,12.06806640625,-0.05104980375766754,0.28023645278960463,-0.05461947893798351
1684168000876084500,12.07808447265625,-0.024887773019075392,0.28830314712822436,0.0733051824465394
1684168000886103300,12.088103271484375,-0.1943862615466118,0.2689870367616415,0.19407471137940882
1684168000896121600,12.09812158203125,-0.4481874196141958,0.1949339585572481,0.32258681726306676
1684168000906140700,12.108140625,-0.6416033748239278,0.11903379118144511,0.47867958851158615
1684168000916158500,12.118158447265625,-0.8317840013742447,0.03969868092089891,0.5593512080729007
1684168000926176500,12.128176513671875,-0.9977139837652444,-0.020474340490996838,0.5445984600991011
1684168000936195300,12.1381953125,-1.0115636454194783,-0.08448825524002312,0.5171843834728003
1684168000946213400,12.14821337890625,-0.8261468722701072,-0.12282441563606261,0.5291042461082339
1684168000956232400,12.158232421875,-0.6030979953408241,-0.13653320751488207,0.5162266443565487
1684168000966250500,12.16825048828125,-0.3663099313944578,-0.16659867543280124,0.5124330972924829
1684168000976269600,12.17826953125,-0.2413414894670248,-0.15129881497025488,0.4884206458032131
1684168000986287600,12.18828759765625,-0.28500352106094357,-0.07591448816210031,0.37910891495198007
1684168000996306400,12.198306396484375,-0.34913667827546596,0.02669949861615896,0.2549322079241276
1684168001006324500,12.208324462890625,-0.2817132473438978,0.12592384295612574,0.18980711706280706
1684168001016343600,12.218343505859375,-0.1344984868168831,0.18646189828813076,0.10140607229322195
1684168001026361300,12.228361328125,0.04177285684645176,0.2168114438444376,-0.0011480009913444518
1684168001036380400,12.23838037109375,0.2634802560389042,0.15631167469620705,-0.08248626776784658
1684168001046398500,12.2483984375,0.422300698685646,0.03788783210664987,-0.13717530481070278
1684168001056417500,12.25841748046875,0.3796738553583622,-0.09384937330335379,-0.18147388074249027
1684168001066435600,12.268435546875,0.13373568575084208,-0.14492577280700206,-0.2488108024343848
1684168001076454400,12.278454345703125,-0.09144611155390739,-0.0785424985781312,-0.28047669128626584
1684168001086472400,12.288472412109375,-0.1028302598774433,0.11134089859127998,-0.2163011562347412
1684168001096491500,12.298491455078125,-0.023817513439059256,0.30643209353685374,-0.24957184993475673
1684168001106510300,12.30851025390625,-0.03743745799064636,0.49015258416235447,-0.3732069974318146
1684168001116528400,12.3185283203125,-0.101911391466856,0.5636722861424088,-0.489968752028048
1684168001126547500,12.32854736328125,-0.019784312400221823,0.4963865101158619,-0.4695937802582979
1684168001136565500,12.3385654296875,0.16340484782755374,0.2852101495489478,-0.32657588689923284
1684168001146584600,12.34858447265625,0.4426981745481491,0.007225567339360714,-0.15693156016021967
1684168001156602400,12.358602294921875,0.7441080560088157,-0.21008388915508985,0.09167349056899547
1684168001166621400,12.368621337890625,0.812269738087058,-0.29631109701693054,0.19933190125524997
1684168001176639500,12.378639404296875,0.7101034950762987,-0.26771336356401443,0.23543372672796248
1684168001186658300,12.388658203125,0.5412497341930866,-0.09405892440080642,0.2521899234786629
1684168001196676600,12.398676513671875,0.26606559635698795,0.12079378659129142,0.20806261246055363
1684168001206695700,12.40869580078125,-0.1038327149182558,0.30684330468624826,0.040787937462329865
1684168001216713500,12.41871337890625,-0.4469546629488468,0.4363128574252128,-0.18709055158048868
1684168001226732500,12.428732666015625,-0.7028308737248182,0.5394005991950631,-0.33184418269097804
1684168001236750600,12.43875048828125,-0.803496649044752,0.5488923579007386,-0.4127741609275341
