time,seconds_elapsed,z,y,x
1684099782147077600,0.01607763671875,-5.4642830587476485,1.5424078670628367,-1.0015677365839482
1684099782157073400,0.026073486328125,-2.8476725731313226,1.5750731422156095,-2.0119971172764894
1684099782167068700,0.036068603515625,-0.21191899562776087,1.349216222128272,-1.8398253178864716
1684099782177064700,0.046064697265625,1.8754355604499577,0.7289268534898757,-1.240741818884015
1684099782187060500,0.056060546875,3.2683523926168676,-0.18161577343121169,-0.4073082967370748
1684099782197056500,0.066056396484375,4.040548478990793,-0.5320116579875349,0.708250852946937
1684099782207052800,0.076052734375,4.106159307542443,-0.16451076324284075,1.7701354033276437
1684099782217048600,0.086048583984375,3.4588013147145507,0.2804585711076856,1.9346283386528491
1684099782227044600,0.096044677734375,2.229288745853305,0.18643354897648096,1.5345894483968614
1684099782237040600,0.10604052734375,1.0690408518761396,-0.47854295651987194,1.0237325143799185
1684099782247036700,0.11603662109375,0.21771511468589305,-1.0796560616537927,-0.016337386816740036
1684099782257032700,0.12603271484375,-0.14138064754605292,-0.7241574471309781,-0.7458093069687485
1684099782267028500,0.136028564453125,-0.25911095491349695,0.19498335065692662,-0.7274442137166858
1684099782277024500,0.1460244140625,-0.27763796072900293,0.6580169686820357,-0.2742892348229885
1684099782287020800,0.156020751953125,-0.2565858203500509,0.40072153875790534,0.8222253149122
1684099782297015600,0.166015625,-0.406451972168684,-0.13153854103274643,1.6462451120257378
1684099782307011600,0.176011474609375,-0.46561786236464975,-0.21787636966221033,1.2635460636273026
1684099782317007600,0.186007568359375,-0.2573568047225475,-0.03901245222240686,0.9440145422816276
1684099782327003600,0.196003662109375,-0.38774493361115453,-0.062165072011947625,0.6878013546362519
1684099782336999700,0.205999755859375,-0.8922370087713003,-0.12513663810119033,0.1038894135415554
1684099782346995700,0.21599560546875,-0.7805904052317142,-0.10437485897094011,0.6939680605724453
1684099782356991500,0.225991455078125,-0.26210078437924383,-0.1044578610792756,2.0804878851786253
1684099782366987800,0.23598779296875,0.10271569358706474,-0.3157316906712949,2.906477521060407
1684099782376983600,0.245983642578125,0.1411760648846626,-1.0499605960920453,2.513769412083924
1684099782386979600,0.2559794921875,-0.2604951027482748,-0.6342145797468721,1.2196852945908903
1684099782396975600,0.2659755859375,-0.6558323911845684,1.4169770683206617,-0.8136617769673467
1684099782406971600,0.2759716796875,-0.4066302513450384,1.2955812241829932,-0.38108079954683777
1684099782416966700,0.285966552734375,-0.9668903909564017,0.7117863335967064,1.4419807228043675
1684099782426962700,0.295962646484375,-2.5348212602019307,-0.29773002390414477,-2.8138658728584645
1684099782436958500,0.30595849609375,-0.6865969472825527,-0.36086905551478266,3.026725948728621
1684099782446954500,0.31595458984375,-0.22793547992706298,0.08004924987927078,6.340030120489001
1684099782456950800,0.32595068359375,0.05745382558107376,-1.138570899698138,4.931439333850145
1684099782466946600,0.335946533203125,0.5500152244508266,-2.071651521641761,4.437613614133
1684099782476942600,0.345942626953125,0.9866133285582065,-2.2914649237811564,4.518617826649546
1684099782486938600,0.355938720703125,1.4748375750064848,-1.2005951019346712,5.490338121980429
1684099782496934700,0.3659345703125,1.7561989401727913,0.996159447799623,3.980523926138878
1684099782506930700,0.3759306640625,1.9283137486785649,1.7861080484852194,-0.04590893373787403
1684099782516926500,0.385926513671875,1.8969582409501076,1.7271809354811907,-3.1641482140377164
1684099782526922800,0.3959228515625,1.4532120186537503,1.7969582360625267,-4.958575178056955
1684099782536917800,0.405917724609375,1.3087410038769245,3.382820775578916,-4.520178207834065
1684099782546913500,0.41591357421875,1.534524858728051,4.674603630392253,-2.350107374624908
1684099782556909600,0.42590966796875,2.3519448191851375,3.43277635435909,0.2970838349550962
1684099782566905600,0.435905517578125,3.6535756987959145,3.182507462070882,4.711904602521658
1684099782576901600,0.445901611328125,2.5447014337033034,1.2533388501286507,5.840845504087209
1684099782586897700,0.455897705078125,1.3858873719215392,-2.3624095145761967,5.463823040020466
1684099782596893400,0.4658935546875,-0.7060030740201473,-3.2649285556480288,2.1220295636177062
1684099782606889500,0.475889404296875,-4.263063102912903,-2.6502251704484223,0.2760375397950411
1684099782616885800,0.4858857421875,-9.785213828739524,-0.41301761429458855,-1.5160674110174177
1684099782626881500,0.495881591796875,-11.854627654457092,2.3680787923842668,-0.7994710467904805
1684099782636877600,0.505877685546875,-10.424435861384868,3.0313407490476965,-1.9569716878861187
1684099782646873600,0.51587353515625,-5.369300589761138,3.171761027128994,-3.681328213596344
1684099782656869600,0.52586962890625,0.41463644766807556,3.4083865939900275,-5.632285171237587
1684099782666864600,0.53586474609375,2.240102985334396,2.55052677885592,-7.117818912303448
1684099782676860700,0.545860595703125,3.790583538085222,1.1047396495059132,-5.917931081855297
1684099782686856400,0.5558564453125,0.6961819372296333,1.0145862081110477,-3.545020047008991
1684099782696852700,0.565852783203125,-3.052423576825857,2.071635301159322,1.2193366272836923
1684099782706848500,0.5758486328125,-3.7275568808078763,0.8880465713441371,3.868770355093479
1684099782716844500,0.585844482421875,-3.620008360236883,-0.05894055700749159,4.615995081818103
1684099782726840600,0.595840576171875,-2.0510171682834626,-0.4408528389424085,3.4996044497460126
1684099782736836600,0.605836669921875,-1.1079331848502159,-0.07726473372727632,0.6746259389817715
1684099782746832600,0.61583251953125,-1.6841250530868768,0.4729091884166002,-0.28326281487345695
1684099782756828700,0.62582861328125,-2.525953478613496,1.2299541751489043,1.7726736896336077
1684099782766824400,0.635824462890625,-2.691343362778425,1.7874632624864577,2.926444496551156
1684099782776820700,0.64582080078125,-0.8813339219629764,3.6896217024281617,2.740437356293201
1684099782786815700,0.655815673828125,0.38266193125844,5.430933162331581,4.5276609648048876
1684099782796811500,0.6658115234375,0.6722112790554762,7.366879013323784,6.638631958791613
1684099782806807600,0.6758076171875,-0.18739771783351897,8.654290813446044,7.298101829695701
1684099782816803600,0.685803466796875,0.1487011996924877,7.95335495968759,8.172049733060598
1684099782826799600,0.695799560546875,1.7985516427338122,7.739759555280208,7.830490796563029
1684099782836795600,0.705795654296875,3.576958323061466,7.592159010306,6.84554160182476
1684099782846791400,0.71579150390625,3.7489579807549713,8.591209211111067,4.775506429338455
1684099782856787700,0.72578759765625,1.9768004239499568,9.799683083596825,2.2319798846334216
1684099782866783700,0.73578369140625,-0.9436264197468757,10.483542714869975,1.3514824134945869
1684099782876779500,0.745779541015625,-3.691557346665859,11.4960842654109,2.4293489613831043
1684099782886775600,0.755775634765625,-5.126648602217435,12.67916826057434,2.8920085584640502
1684099782896771600,0.765771484375,-6.179913792812824,12.908130160939693,2.5804601448267697
1684099782906767600,0.775767578125,-7.692730093079805,12.508568532806635,2.297099714797735
1684099782916762600,0.7857626953125,-8.289789392778276,12.117490655380486,1.0980068341195584
1684099782926758400,0.79575830078125,-6.6010466167628765,12.149757432734965,-1.0626268931806087
1684099782936754700,0.805754638671875,-3.6605753484249113,12.741408151388168,-4.105608103400469
1684099782946750700,0.815750732421875,-0.5203752884685993,13.564596173852681,-5.593380563303828
1684099782956746500,0.82574658203125,1.6457038447558878,14.010031079888343,-4.565642028152943
1684099782966742500,0.835742431640625,3.4366344910919664,14.987031361448764,-1.8904244552671907
1684099782976738800,0.84573876953125,5.090616334849596,16.771342881906033,1.1792945397526025
1684099782986734600,0.855734619140625,5.730545054459571,18.355380836343762,3.7426989203602075
1684099782996730600,0.865730712890625,4.069933563429117,17.617745775741337,5.079469502413272
1684099783006726400,0.875726318359375,0.7963602212935685,16.099972729849814,4.466989930742979
1684099783016722700,0.88572265625,-1.3911103672668337,15.908263578557968,4.2688539612740275
1684099783026718700,0.89571875,-1.7326272181883453,17.877003445649144,4.67887093244791
1684099783036714500,0.905714599609375,-1.2206123463079332,19.131852700340747,7.177390460690855
1684099783046710500,0.91571044921875,-3.2171473982974885,20.450756201791762,10.461220992946624
1684099783056705800,0.925705810546875,-6.768906105911731,22.670391568636894,10.292551356458663
1684099783066701600,0.93570166015625,-8.375190963470935,23.781534947705268,16.443917100179196
1684099783076697600,0.945697509765625,-8.839287315356732,21.782926012051103,20.28947492198944
1684099783086693600,0.955693603515625,-8.58033242778778,18.69946783001423,21.75701298763752
1684099783096689700,0.965689697265625,-7.417364168936014,16.639418629491328,23.687267933511734
1684099783106685700,0.975685791015625,-6.2326014269053935,13.9157816013515,27.26717458498478
1684099783116681500,0.985681396484375,-6.6045332898348565,9.96914825437665,31.889915049409865
1684099783126677500,0.995677490234375,-6.904537396150827,6.887685630071163,35.28048804655075
1684099783136673800,1.005673828125,-4.77364092772752,3.136143478041887,40.939160289454456
1684099783146669600,1.015669677734375,1.6440876417309045,-1.4679203429639338,45.79008874726295
1684099783156665600,1.02566552734375,10.754777238297462,-4.861102645820379,45.440147182345385
1684099783166661400,1.035661376953125,17.71397561444044,-8.70970874928534,40.75430641088486
1684099783176656400,1.045656494140625,19.72662944205999,-14.73811505281329,38.695847109901905
1684099783186652700,1.055652587890625,17.73700577689409,-16.475701062452792,33.2561133859992
1684099783196648700,1.065648681640625,9.53695043105483,-14.648139598333834,25.998448780632017
1684099783206644500,1.07564453125,1.8564830226987599,-13.70725224816203,25.46990070710182
1684099783216640800,1.085640869140625,5.804360232254862,-11.918030743831395,31.966419612419603
1684099783226636500,1.095636474609375,12.703388509595394,-13.265855219340324,29.38950809998512
1684099783236632600,1.105632568359375,22.36067680016756,-15.553061316633224,24.202619840860365
1684099783246628600,1.115628662109375,36.43907122218609,-16.05607279784679,15.090710347110033
1684099783256624600,1.125624755859375,53.84598345944881,-10.94262386894226,-1.9078890925481915
1684099783266620700,1.13562060546875,32.98222045701742,-6.338892056369781,-4.12594274315983
1684099783276616400,1.145616455078125,11.325158374428748,-9.854456876313685,-9.32963512983024
1684099783286612500,1.155612548828125,1.0585707496576011,-4.093189351332187,-4.780237549513578
1684099783296607500,1.165607421875,-4.235039954477548,1.6156716945856808,-4.217026743403077
1684099783306603800,1.175603759765625,-2.1593442720115186,2.160433820813894,-10.02602924850583
1684099783316599600,1.185599609375,1.1443039634574204,-0.6971347079098225,-12.01311725771427
1684099783326595600,1.195595703125,3.998457642236352,3.093897742986679,-12.383899366086721
1684099783336591600,1.205591552734375,-0.6326151817262172,3.8851317073076963,-8.15587601237297
1684099783346587600,1.215587646484375,-4.681226555663347,1.795663520076871,-1.3505109381139278
1684099783356583700,1.225583740234375,1.1843233277000487,0.4355477182716131,2.470741586740315
1684099783366579500,1.235579345703125,-0.47182782292068004,0.12949381039738656,0.6554930762276053
1684099783376575700,1.24557568359375,-3.40811157644093,1.1891226908057928,-3.5789474510520694
1684099783386571500,1.255571533203125,0.23466800305247307,0.14488719436228276,-4.84431693071425
1684099783396567600,1.265567626953125,-1.8764672415852546,-0.6045844345062971,-3.5971520930454135
1684099783406563600,1.2755634765625,-7.1367486537009475,3.8069407986462114,-4.338509096780419
1684099783416559600,1.2855595703125,-7.270410689693689,7.33283119777143,-9.262230403599142
1684099783426554600,1.2955546875,-0.8220835683539509,6.4522214984297745,-12.414273461562395
1684099783436550700,1.305550537109375,6.75553633672893,5.275898083442449,-9.37849999076426
1684099783446546400,1.31554638671875,7.233857028800249,5.2297155934602015,-4.288032416735589
1684099783456542500,1.32554248046875,2.9671473860785365,6.752074213576316,-0.9103302993446588
1684099783466538800,1.335538818359375,-2.7988167722865938,5.182540000787377,5.281646856227517
1684099783476534500,1.345534423828125,-3.734609721928835,4.710196629559993,15.047621731489896
1684099783486530600,1.355530517578125,-2.763459335440397,3.8897219577074047,19.33388450820446
1684099783496526600,1.365526611328125,-4.497664470469951,1.8544588233947752,15.448426053160428
1684099783506522600,1.375522705078125,-0.6357447119235992,1.8341145390242337,7.492551804128289
1684099783516518700,1.3855185546875,5.753004723548889,2.1580758595108986,0.7768222848698496
1684099783526514400,1.395514404296875,5.071688931539654,4.084607985469699,-1.9065698266431688
1684099783536510700,1.4055107421875,-2.8071239973828197,4.162784865605831,-2.2934996444791556
1684099783546506800,1.4155068359375,-6.132990129074454,2.0353309388518332,-2.01737676448822
1684099783556501500,1.42550146484375,-3.1436405557990073,-1.22191436881721,-4.2038825996696945
1684099783566497500,1.43549755859375,-1.519575126877427,-6.840041250842809,-7.937905461621284
1684099783576493600,1.44549365234375,-2.815788073092699,-6.553104131370782,-4.108706361676752
1684099783586489600,1.455489501953125,-0.6844342162907123,-4.913307464832068,0.6832184107601642
1684099783596485600,1.465485595703125,4.5057682819485665,-3.3846097048223016,0.21989625811725855
1684099783606481700,1.475481689453125,9.924925666290521,0.43422377619147295,-0.3263999458104372
1684099783616477400,1.4854775390625,4.916503630524874,3.2527824830412864,2.7160069716528055
1684099783626473700,1.4954736328125,-3.6425901944011447,0.007038228073716163,0.8040253490939736
1684099783636469500,1.505469482421875,-3.6977053479015827,0.5773550667971372,-0.11558774238079786
1684099783646465500,1.515465576171875,-3.545062717106938,2.8129484657526014,1.763180177362263
1684099783656461800,1.5254619140625,-3.0055349844008683,4.328334908768534,3.206428143623471
1684099783666457600,1.53545751953125,-1.2115607325851916,6.33566666458249,4.143000260944664
1684099783676453600,1.54545361328125,0.20972265462726353,8.120527635616064,4.6325990106165404
1684099783686448600,1.55544873046875,2.3920912438735367,0.7462824774384498,0.10421791484355926
1684099783696444400,1.5654443359375,2.1583292497500777,-5.0399955701589585,-2.0938304740935565
1684099783706440700,1.575440673828125,2.1668448568999765,-4.411577840122581,-3.35229207406342
1684099783716436700,1.585436767578125,-0.19539105467498302,-1.495080152568221,-3.8509906605139372
1684099783726432500,1.5954326171875,-0.8772823084846139,-2.5038778404057025,-3.247593097704649
1684099783736428500,1.605428466796875,1.3640920119598507,-1.4550503399968147,-0.22377222276777028
1684099783746424300,1.61542431640625,-0.5209942971497774,1.0417501093685626,1.6131553278505801
1684099783756420000,1.625420166015625,-1.4755503994509578,4.2090602945685385,-0.237366740617156
1684099783766416100,1.635416015625,0.46715603171736,3.8938592036426063,-3.0858132207304236
1684099783776412000,1.645411865234375,1.9415446939125656,1.344578040933609,-5.550455029290914
1684099783786408200,1.655408203125,1.8983406352192163,-2.0138608653217553,-5.041543968644738
1684099783796404200,1.665404296875,-0.4672410796523094,-3.744872757267952,-1.037691189366579
1684099783806400000,1.67539990234375,-1.1911211711466312,-2.6765304090499877,1.3495020533323288
1684099783816396000,1.68539599609375,1.186248012152314,-0.6014788697063923,0.6616168198049068
1684099783826391300,1.695391357421875,0.8855559235721826,-0.8397492811650037,0.6251417771056295
1684099783836387000,1.705386962890625,-1.0580945104479789,0.19351649297475815,2.1312433821648358
1684099783846383000,1.715383056640625,-0.9829816940575837,1.9144155717074869,3.8197143555015325
1684099783856379100,1.725379150390625,0.42068040400743484,0.9767395847976207,3.4092554857790467
1684099783866375200,1.735375244140625,-0.05383621960580349,0.07468903802037238,1.7768740639328955
1684099783876371200,1.74537109375,-0.6568132189154624,0.5709224034011363,-1.0719751517623661
1684099783886367000,1.755366943359375,-0.6313198812186718,0.5297556957542896,-3.6307445660457014
1684099783896363000,1.765363037109375,0.5614753606200218,-16.702684940743445,-8.422581075677275
1684099783906359300,1.775359375,2.04305831823349,-13.40665251404047,-12.867130626553296
1684099783916355000,1.78535498046875,-2.9522610748529434,-1.2259189282834528,-6.422526617389917
1684099783926351000,1.79535107421875,-2.7930934262037277,-9.249156987014413,-0.8873164304386824
1684099783936347000,1.805346923828125,-1.0607996777534485,0.5127098684072494,-1.2923042483389378
1684099783946343200,1.81534326171875,-4.5362171962261195,11.941758825421333,4.138880258405209
1684099783956338200,1.825338134765625,-3.5257828470975157,6.475769547277689,11.565919433659314
1684099783966334200,1.835334228515625,-0.5409364304602146,4.632950892794132,9.01640913836956
1684099783976330000,1.845330078125,4.622856199759244,6.368346698912978,0.8220591645650566
1684099783986326300,1.855326171875,7.436638193726539,3.9502439386874433,-3.604133330234885
1684099783996322000,1.865322021484375,2.550362528204918,2.7085008338063954,-4.142283637107909
1684099784006318000,1.875318115234375,-1.2291016499727965,3.356501800712943,-1.9226811496190725
1684099784016314000,1.885314208984375,1.282499478161335,4.7467245714902875,1.6635674182265996
1684099784026310100,1.89531005859375,3.9576930856496095,3.8307922143548723,4.74026735817492
1684099784036306200,1.90530615234375,4.194843553167582,2.4078835640281437,3.916301629336178
1684099784046302200,1.91530224609375,-0.9991671051830052,1.7152713019788264,3.1828836019068953
1684099784056298000,1.925298095703125,-7.8892779165744775,-3.170213505426049,2.5275316877156495
1684099784066294300,1.935294189453125,-4.548640039947629,-1.5729010588735342,-2.107841902180761
1684099784076290000,1.9452900390625,0.5532546447634696,1.8000579556435345,-5.9574435925543305
1684099784086286000,1.9552861328125,3.6043577866405245,4.086849042394757,-7.9193562439739695
1684099784096282000,1.9652822265625,3.535490002119541,4.333968530741334,-5.870526356601715
1684099784106276900,1.97527685546875,0.353178062620759,4.271090342023968,-2.1023086718425152
1684099784116273200,1.985273193359375,-5.336216650804877,2.2501655296653507,-2.70699978159368
1684099784126269200,1.995269287109375,-5.567092860358954,-3.0293729561060667,1.9799550885885953
1684099784136265000,2.005264892578125,1.8862468773216008,-4.395542651122808,5.318476995974779
1684099784146261200,2.01526123046875,6.297004048711061,-6.34148616451621,8.192643023756146
1684099784156257300,2.02525732421875,1.847017859739065,-8.229895772829652,8.29090407602191
1684099784166253000,2.035253173828125,2.7112404879033565,-2.7434675177693366,-0.7340045951455831
1684099784176249000,2.0452490234375,1.9124205984979867,-3.490181372362375,-3.5128128908872602
1684099784186245000,2.0552451171875,1.117252217337489,-4.8598009155720465,-3.8465664143308995
1684099784196241200,2.0652412109375,1.333850310692191,-3.1911119165480133,-3.419025769165158
1684099784206237200,2.0752373046875,1.0408639741837977,0.7215542788952589,0.21907062094807622
1684099784216233000,2.08523291015625,0.2745592839360237,2.64493232473731,3.8050621452927587
1684099784226229200,2.095229248046875,-0.2916355064213276,3.2097897290110584,6.4160167971044775
1684099784236224300,2.105224365234375,-1.8633207597643136,2.7389129232048988,5.7447243864595885
1684099784246220000,2.115219970703125,-0.6796537040159106,1.7984096039146185,0.03127250562012195
1684099784256216000,2.125216064453125,-0.3869786254137754,-3.4389316621184345,-2.6805817302674053
1684099784266212000,2.135212158203125,-3.8641386036396024,-10.067379496026039,0.3862000422567129
1684099784276208000,2.1452080078125,-8.328280159214138,-14.552345812964438,0.572566078954935
1684099784286204200,2.1552041015625,-6.265619899410009,-11.014628782445191,-3.7149937518328424
1684099784296200000,2.165199951171875,-2.179852807033062,-6.52970221299529,-6.2198062427401535
1684099784306196200,2.1751962890625,3.23800460062623,-9.079545685762167,-0.5202659828752279
1684099784316192300,2.185192138671875,3.7355730140030383,-8.657948751431704,-1.9192507367789744
1684099784326188000,2.19518798828125,1.4180302306354045,3.6584693160563706,-1.4031640854150056
1684099784336184000,2.20518408203125,0.43456396793127056,3.486277935183048,-1.7711469184577464
1684099784346180000,2.21518017578125,1.1964864975720644,2.970279546624422,-1.5229811359286307
1684099784356176100,2.225176025390625,1.5006810413151979,5.82191459364593,-0.9843623347610234
1684099784366171100,2.235171142578125,-1.4327145895481108,5.622400906082987,-2.0768454370230436
1684099784376167200,2.245167236328125,0.04505786986649036,5.390859510618448,-3.144240275257826
1684099784386163000,2.255162841796875,-1.5822534091085194,-1.7639117065072059,-2.082739755758643
1684099784396159200,2.2651591796875,-2.282590127930045,-5.2186979403614995,-0.5339087237805128
1684099784406155000,2.275155029296875,-4.698741169565916,-7.588652463489771,2.6827520600438115
1684099784416151000,2.285151123046875,-8.249452121692896,-6.493025802505016,5.0742953146457666
1684099784426147000,2.29514697265625,1.1901193006277084,-0.23172610438168048,2.2215122666329146
1684099784436143000,2.30514306640625,-0.7054922018885612,-1.5282985315591096,-0.8824684789508581
1684099784446139100,2.31513916015625,-4.041684205022454,-0.049453474476933476,-1.7237760954737662
1684099784456135000,2.325135009765625,-2.6119699663341045,1.2008502457395196,-2.5361504629790783
1684099784466131200,2.335131103515625,-0.39116555570960043,9.650701897919177,-3.9898660472407936
1684099784476127200,2.345127197265625,-0.2191682361036539,21.58151379739046,-5.9416544872701165
1684099784486123000,2.355123046875,3.2813638498812914,17.561626998156306,-4.555156289973855
1684099784496118000,2.365117919921875,6.7069158059448,6.898131036239862,1.1104659181982277
1684099784506114000,2.375114013671875,6.579826718601584,2.017495276301354,2.727177477225661
1684099784516110000,2.385110107421875,1.4353975450217722,4.3617935262560845,0.5534308781132101
1684099784526106000,2.395106201171875,1.2246142754256724,6.297405615249276,-0.07307400403916835
1684099784536102100,2.40510205078125,0.9490829315871,8.512865157714486,0.9848857741132379
1684099784546098000,2.415097900390625,-1.977402481496334,6.050038874143362,0.8719184433639049
1684099784556094200,2.42509423828125,-3.0188878024488686,-2.866469043537974,0.7476949745848774
1684099784566090000,2.435090087890625,-4.621630457356572,-7.235332946571707,-0.9545172315955162
1684099784576086000,2.4450859375,-3.94435721873641,-1.678203992474824,-4.021087114934623
1684099784586082300,2.455082275390625,-2.5041332764714954,3.982824019774794,-4.368554690954089
1684099784596078000,2.465078125,1.1581050367295742,7.003197676867246,-2.1840441212430597
1684099784606074000,2.47507421875,3.568817102181911,7.041061835837364,-0.047535950417816636
1684099784616069000,2.485069091796875,3.8023078781485555,5.946252336454391,0.7140028406023978
1684099784626065000,2.49506494140625,3.670198916816711,5.070048763117194,0.8251391565322875
1684099784636061200,2.505061279296875,2.3876620292544364,4.957870244657993,1.0381316266104579
1684099784646057200,2.51505712890625,-0.8476274671941995,3.61357978849411,1.2127762458547948
1684099784656053000,2.525052978515625,-0.6427098747611045,-0.005989741934090852,1.5073597884267567
1684099784666049000,2.535049072265625,-1.1940338437229394,-1.9885349931463598,1.213596330066025
1684099784676045000,2.545045166015625,-0.8230360467731952,-2.121250688199699,0.8920879556894302
1684099784686041000,2.555041015625,0.129839847356081,-1.842035833542794,0.7351575645729899
1684099784696037000,2.565037109375,-0.7350128954052925,-1.684730617764592,0.7777621960684656
1684099784706033000,2.575032958984375,0.3814280055493116,-2.6674972077667713,1.5087939128831027
1684099784716029200,2.585029296875,-0.751707425096631,-6.419431573984027,-0.03424509169012308
1684099784726024200,2.595024169921875,-5.010899239534139,-6.551822859388589,-2.850827822291851
1684099784736020000,2.60502001953125,-3.519619063770771,-5.262193383216857,-3.737807933448255
1684099784746016000,2.61501611328125,1.0308563749104738,-4.313310065855085,-2.504352472180128
1684099784756012000,2.625011962890625,0.6014274317800998,-1.492316240812838,-2.2508470821887254
1684099784766008000,2.635008056640625,-1.2937795815885067,0.41945685356184836,-2.10607620768249
1684099784776004000,2.645004150390625,-0.0863525878071785,0.9797067640401422,-0.9648135846823453
1684099784786000100,2.655000244140625,2.3557722685188054,1.444425631738454,0.41997371704280373
1684099784795996000,2.664995849609375,3.0121792447209357,1.6179491379983721,0.6654682345360518
1684099784805992200,2.6749921875,2.1197762317329643,1.9526345354646444,0.08338672373890876
1684099784815988000,2.684988037109375,0.6862339591890573,2.287377654467523,-0.3530675879836082
1684099784825984000,2.69498388671875,-0.5356628739714622,2.3986137775100764,0.11506605659425258
1684099784835980300,2.704980224609375,-0.7990665576428174,1.9654742894239723,1.0440911195367575
1684099784845975000,2.71497509765625,-0.3416401850402355,0.9097940005108713,1.4331874677568672
1684099784855971000,2.72497119140625,0.018944938966631887,-0.18281258200034498,1.217636253106594
1684099784865967000,2.734967041015625,0.08037468244135379,-0.9196019855588674,0.969293944966793
1684099784875963000,2.744962890625,0.35388474958539007,-1.436866594661027,0.8656693198412656
1684099784885959200,2.754959228515625,0.5645896932482719,-1.512632614263147,0.7626590272217989
1684099784895955200,2.764955078125,0.30052023914456366,-0.6949317910380661,0.42998482344746586
1684099784905951000,2.774950927734375,-0.10773030687868594,0.47044615930393335,0.25217501817047594
1684099784915947000,2.784947021484375,-0.4316606477051973,1.0693858659215272,0.4707435348153114
1684099784925943000,2.794943115234375,-0.7036158866226673,0.7501635566554963,0.6551333030045032
1684099784935939000,2.80493896484375,-0.39952071160078045,-0.4942040515102446,0.7566045494884253
1684099784945935000,2.81493505859375,-0.06988426808714866,-1.7039470671489834,0.46671676351726055
1684099784955930000,2.82493017578125,0.19184768297970295,-2.5309447110295293,0.15337912837564943
1684099784965926100,2.834926025390625,0.8694768954306841,-2.70326994741559,-0.3359147931307554
1684099784975922200,2.844922119140625,1.3127157527267932,-1.9128350245177745,-1.0242717358231543
1684099784985918000,2.85491796875,1.3365420339941978,-0.8757862247079611,-1.4622943197757006
1684099784995914000,2.8649140625,1.2866449074029922,0.09467822534292936,-1.726712148925662
1684099785005910300,2.87491015625,0.8437515025436878,1.1999014205820857,-1.7072008082479238
1684099785015906000,2.884906005859375,0.16953589792847631,2.111994199554622,-1.3277227677226067
1684099785025902000,2.894902099609375,0.03974105875790119,2.5441128201603886,-0.9655758012264967
1684099785035897900,2.90489794921875,0.21235621800124643,2.152508726903051,-1.0029641593784093
1684099785045894100,2.91489404296875,0.5460153411597013,0.6035301031477749,-0.6785282071173191
1684099785055890200,2.92489013671875,1.38995155262053,-1.0246519673123955,-0.1366197167545557
1684099785065885200,2.93488525390625,2.5316964061796665,-1.5305316974386571,0.22525603158473967
1684099785075881000,2.944880859375,2.402819266375899,-0.9497735441997647,1.0264309596836567
1684099785085877200,2.954877197265625,1.1520505589962005,-0.3606581892430782,1.983184279768169
1684099785095873000,2.964873046875,0.4803238485872745,0.2452922729194164,2.373514553697407
1684099785105869000,2.974869140625,0.256490543282032,1.0541733914814888,1.925693044786155
1684099785115865000,2.984864990234375,-0.15308160673379897,1.3899053753912447,1.3263295597985385
1684099785125861000,2.994861083984375,-0.8136527168780565,0.7992872146561741,0.5153305722996592
1684099785135857200,3.004857177734375,-1.573936247140169,-0.028272008629888296,-0.8467509766206145
1684099785145853000,3.01485302734375,-2.4213550400197503,-0.3894625511839986,-2.3452798083379864
1684099785155849000,3.024848876953125,-3.1946699012905357,-0.23804434761777518,-3.8085850587218997
1684099785165845200,3.03484521484375,-3.802179867854714,0.08763371365889906,-5.167988912865519
1684099785175840300,3.04484033203125,-3.634156712576747,0.32858240441605446,-5.996440554946661
1684099785185836000,3.0548359375,-2.2269839760422707,0.344652080207318,-5.829499349686503
1684099785195832000,3.06483203125,-0.5206283864468336,0.00310351897329092,-4.890279932726919
1684099785205827800,3.074827880859375,0.7709580690115689,-0.5552997407250106,-3.437791259911656
1684099785215824100,3.08482421875,1.423631703904271,-0.774761699078232,-1.9009590010240673
1684099785225820200,3.094820068359375,1.768663284948468,-0.4049785386152565,-0.5406874241352081
1684099785235816000,3.10481591796875,2.0005892958164213,0.261126970911026,0.8273927806779742
1684099785245812200,3.114812255859375,2.249751103645563,1.0383369399242102,2.2484446972221135
1684099785255808000,3.12480810546875,2.050633137401938,1.6646195576280354,2.9659903249979016
1684099785265804000,3.134803955078125,1.4746347459107636,1.8621688132502137,2.950419246378541
1684099785275800000,3.144800048828125,1.1373194383323193,1.787495265059918,2.959796146532893
1684099785285796000,3.154796142578125,0.45953415853679175,1.1268567887678742,2.3080314431786535
1684099785295791000,3.164791015625,-0.3354103507399559,0.002722410701215267,0.6421279832199216
1684099785305787100,3.174787109375,-0.24419629437625406,-0.8255598661623895,-0.9151929369449615
1684099785315783000,3.184782958984375,-0.9034510612249373,-1.276264675424993,-1.8852695567220448
1684099785325779000,3.194779052734375,-1.8953297629654406,-1.2714840170197188,-2.6123317853838204
1684099785335775200,3.204775146484375,-1.2112070968419313,-0.7613518901459873,-3.8336940732762215
1684099785345771000,3.21477099609375,-0.5391682517439127,0.30118878605589267,-4.399080177599191
1684099785355767000,3.22476708984375,0.9037889148771763,1.1866355501651764,-4.003298068004846
1684099785365763000,3.23476318359375,2.648119722601771,1.263520929186046,-3.2259885841399427
1684099785375759000,3.244759033203125,2.5779876172333953,0.6260623990818858,-2.67387843323648
1684099785385755100,3.254755126953125,1.2522761893332004,-0.6727526924557984,-2.0816613128721713
1684099785395750100,3.264750244140625,0.40790100193321704,-2.279270628118515,-1.4187927394405007
1684099785405746000,3.274745849609375,0.46135611326694487,-3.5390550011247393,-0.9441986666768789
1684099785415742200,3.2847421875,0.8367746492683887,-4.227453152610361,-0.511677310489118
1684099785425738000,3.294738037109375,0.7292296358287333,-4.362649850824475,0.007564590035378933
1684099785435734000,3.304734130859375,0.5999877543658018,-3.572109713986516,0.4513549437344074
1684099785445730000,3.31472998046875,0.5807353568851947,-0.683202044147253,0.5173994875282049
1684099785455726000,3.32472607421875,0.44827100624442096,1.7380355069726705,0.627343378803134
1684099785465722000,3.33472216796875,0.41486382668316363,2.5978794816613195,0.6107715987086296
1684099785475718100,3.34471826171875,0.4066249906480312,2.853524806290865,0.5497276396811008
1684099785485714000,3.3547138671875,0.2720323958069086,1.2836680835492909,0.6778437319844961
1684099785495710200,3.364710205078125,0.5157230787485838,-1.1312805965594948,0.6439113595053553
1684099785505705200,3.374705322265625,0.9489818093001842,-2.3402147800333797,0.27738077109754083
1684099785515701000,3.384700927734375,0.969500865715742,-2.6211139345154164,0.0016159107640385626
1684099785525697000,3.394697021484375,0.7742366522908211,-2.197856958018243,-0.1124941602796316
1684099785535693000,3.404693115234375,0.21800269945561884,-0.994716701645404,-0.11763707612603902
1684099785545689000,3.414689208984375,-0.13827391370236872,0.7390862823240458,-0.16583528984487056
1684099785555685000,3.42468505859375,-0.12901099531650542,1.8177444189816712,-0.1850964551538229
1684099785565681000,3.434680908203125,-0.016936521753668783,1.8137448279514907,-0.1636158602297306
1684099785575677200,3.44467724609375,0.11057692848145961,0.45634749132469293,-0.046589024956524366
1684099785585673200,3.454673095703125,-0.18855273308753967,-1.489506590219587,-0.26093904712349175
1684099785595669000,3.4646689453125,-0.7466752761483192,-2.2189698886737226,-0.5556380327686667
1684099785605665000,3.4746650390625,-1.569579805496335,-1.8964387471206485,-0.21587357847243546
1684099785615660000,3.484659912109375,-2.2561866896510123,-0.7800621435739099,0.38857933860868216
1684099785625656000,3.494656005859375,-2.3561212280869483,0.8479417938403785,0.8627569395259023
1684099785635652000,3.504652099609375,-2.321643204423785,2.0177847607672215,1.1653431712895632
1684099785645648100,3.514648193359375,-2.1565262919813395,2.176327263255417,1.6589881276123224
1684099785655644200,3.52464404296875,-1.4952882423609495,0.4959571787878871,2.604932322782278
1684099785665640200,3.53464013671875,-0.5340075079798698,-2.44372191625908,2.5828452863976357
1684099785675636000,3.544635986328125,0.8032388748914003,-3.8360868136316535,2.523907067477703
1684099785685632000,3.554632080078125,2.2266507985651494,-3.360106839467585,3.6852041782468556
1684099785695628300,3.564628173828125,2.428323709988594,-1.7051716405078767,4.414841810354591
1684099785705624000,3.5746240234375,1.8216466871172188,0.3589933247707784,3.749305186757445
1684099785715620000,3.5846201171875,0.8775666783839464,2.003148917171359,2.6458698978483675
1684099785725615900,3.594615966796875,-0.3378004607468843,3.092360450416803,1.4398045478090642
1684099785735611000,3.60461083984375,-1.6193839931070804,3.337234497924149,0.4761057925008237
1684099785745607200,3.614607177734375,-2.40419815351367,2.5352719265788792,-0.22687135782688855
1684099785755603200,3.624603271484375,-2.308533547481894,0.9995207409262656,-0.5000364109255373
1684099785765599200,3.63459912109375,-1.7396499564319847,-0.3834896142542362,-0.37958135476931926
1684099785775595300,3.64459521484375,-0.9766869778275489,-0.7619783514812588,0.07925050071701407
1684099785785591000,3.654591064453125,-0.011819032609462737,-0.2030944686591625,0.375710066293925
1684099785795587300,3.66458740234375,0.833310772550106,0.5233227400973439,0.8676707227915524
1684099785805583400,3.674583251953125,1.1385305676877497,1.156585279816389,1.0134304622046648
1684099785815579100,3.6845791015625,1.0154740968614817,1.706501135545969,0.8097758754447102
1684099785825575200,3.6945751953125,0.6394067415624857,2.2308526341691612,0.7375972128100693
1684099785835571200,3.7045712890625,0.092452073726058,2.9070418769448994,0.8281976673200726
1684099785845566200,3.714566162109375,-0.2625736625880003,3.58303092097342,1.2221595026846974
1684099785855562200,3.724562255859375,-0.2427098552107811,3.6553400781199334,2.1209745016068218
1684099785865558300,3.734558349609375,-0.03709843529462814,2.709538360160589,3.047143298335373
1684099785875554300,3.74455419921875,0.13181202421188354,0.9299632205754518,2.95868204781115
1684099785885550300,3.75455029296875,0.011268412989377976,-0.4619491107240319,2.0512629597380756
1684099785895546000,3.764546142578125,-0.3269961581379175,-1.0668237603485584,1.2612018385887145
1684099785905542100,3.774542236328125,-0.6193780990123748,-1.216587913097441,0.6604482144169509
1684099785915538400,3.784538330078125,-0.724597884374857,-1.1081541341245174,0.2336516656167805
1684099785925534200,3.7945341796875,-0.4588438381850719,-0.8590884801462292,-0.13450696238428353
1684099785935530200,3.8045302734375,0.10080138439834117,-0.7659443325027823,-0.17782032667100428
1684099785945526000,3.814526123046875,0.6557704318642615,-0.9402125196501612,0.38741774748340246
1684099785955521300,3.824521240234375,0.960685106575489,-1.1763333518594503,1.5203911194354296
1684099785965517300,3.834517333984375,1.0385463448911905,-1.1628911019623278,2.651635329507291
1684099785975513300,3.844513427734375,1.0271014062911272,-0.7760223666638135,3.2953143415614963
1684099785985509000,3.854509033203125,1.2240513808459044,-0.08098930720835924,3.215378342798352
1684099785995505400,3.86450537109375,0.8613409352481365,1.1661012961804866,2.5827438718497753
1684099786005501200,3.874501220703125,0.8012035696715116,1.4089499753400683,0.8765405502066016
1684099786015497200,3.884497314453125,0.9216682704389095,0.6781909379869699,-0.9488981496047229
1684099786025493200,3.8944931640625,0.2730290056288242,-0.0938271614715457,-2.081783916338533
1684099786035489300,3.9044892578125,-0.683280370080471,-0.7677817770630121,-2.6198534130603073
1684099786045485300,3.9144853515625,-1.1040005215764046,-1.1660790843486786,-3.4719308454006907
1684099786055481000,3.924481201171875,-0.9375900621920823,-1.08671065634042,-3.9302176342248916
1684099786065476000,3.93447607421875,-0.44028526818752284,-0.9522110004797577,-3.9624876264497635
1684099786075472100,3.94447216796875,0.5793722518384457,-0.7929363843247293,-3.5791520337134597
1684099786085468400,3.954468505859375,1.59530753647089,-0.4754164950624108,-2.732310163938999
1684099786095464200,3.964464111328125,1.6323779147148132,-0.31872020496279,-1.6528756360813974
1684099786105460200,3.974460205078125,0.9801508545458316,-0.0822758398875594,-0.49507966530099506
1684099786115456300,3.984456298828125,-0.3251923235863447,0.15281360344737768,0.5304938007704914
1684099786125452300,3.994452392578125,-1.5372358712524175,0.2777127795308828,1.5399869235262273
1684099786135448300,4.0044482421875,-1.7730577205151319,0.5253212204381823,2.4834055457413196
1684099786145444000,4.014444091796875,-1.4741162749946117,0.8062336727932095,3.021018384736776
1684099786155440400,4.0244404296875,-0.7697375873059034,1.024132327352464,2.920442333526909
1684099786165436200,4.034436279296875,0.315849910223484,1.074760106305778,1.8106817871190606
1684099786175432200,4.04443212890625,1.0400573339760304,0.9753998606264591,0.2689865983702242
1684099786185427200,4.05442724609375,1.0965127961695194,0.6208294668644666,-0.616831191008538
1684099786195423200,4.06442333984375,0.4994260239422321,-0.17366437603533266,-0.4344602152958512
1684099786205419300,4.074419189453125,-0.7071177572637796,-0.9509025482296943,0.4347071757942438
1684099786215415300,4.084415283203125,-2.043535872617364,-1.056260865280032,1.520560046261549
1684099786225411000,4.0944111328125,-2.881235235515237,-0.696633772650361,2.2302790720649064
1684099786235407000,4.104406982421875,-2.868710684984922,-0.4032099215075373,2.2691170445032416
1684099786245403400,4.1144033203125,-2.2403408857434988,0.41996290338784453,1.821126170374453
1684099786255399200,4.124399169921875,-0.5226122537404299,0.6475310113072394,0.087203943939507
1684099786265395200,4.134395263671875,0.7955085729002952,0.45610301504433154,-1.6472025588810444
1684099786275391200,4.14439111328125,1.1693383784055709,0.39346564934551714,-2.9336066432654855
1684099786285387300,4.15438720703125,0.508452795484662,0.20196926402151583,-3.4955069512993093
1684099786295382300,4.16438232421875,-0.6658136869728565,-0.353476461045444,-2.9443603847309947
1684099786305378300,4.17437841796875,-2.148194516965747,-0.8577864576369524,-1.755596444234997
1684099786315374000,4.1843740234375,-3.4703403613388537,-0.7361565124824643,-0.47261298194900153
1684099786325370400,4.194370361328125,-4.059694493487477,-0.30875089187324045,0.4192741904713213
1684099786335366100,4.2043662109375,-3.627863165390491,0.040349838306009765,0.6095829734459519
1684099786345362200,4.214362060546875,-1.9648709167033434,0.26848990089446306,-0.20363018297106025
1684099786355358200,4.224358154296875,0.020672201150655746,0.38556379017978903,-1.3175757599785922
1684099786365354200,4.234354248046875,1.4928747514784335,0.5477370503857731,-2.3294401419103146
1684099786375350300,4.244350341796875,2.138671486338973,0.6392267088204622,-3.050806789278984
1684099786385346000,4.254345947265625,2.220205860209465,0.44978637924343345,-3.3622137486189603
1684099786395342000,4.264342041015625,1.921495300835371,-0.2603182848766446,-2.2012097755774853
1684099786405338400,4.27433837890625,1.5642968966573476,-1.5560425707921386,0.07735591914206742
1684099786415333400,4.28433349609375,1.8827830006033182,-2.512854635326564,1.5288421369165182
1684099786425329200,4.2943291015625,3.1608874586760995,-2.646313257701695,2.425313422256708
1684099786435325200,4.3043251953125,4.871949618527293,-2.248977781185508,3.077423870308697
1684099786445321200,4.3143212890625,6.3752417191237205,-1.583002473910153,3.567134848183393
1684099786455317200,4.324317138671875,7.4708584432363505,-0.4687444699525833,3.659228025469184
1684099786465313300,4.334313232421875,7.655686602842807,1.2189146024793385,2.77905467171818
1684099786475309000,4.34430908203125,6.32423575450778,2.891576012265682,1.188525601695478
1684099786485305300,4.354305419921875,4.166812221425771,3.802625858056545,0.5484815851427615
1684099786495301000,4.364301025390625,1.9708949992984532,3.2400597795903683,0.5757024772845208
1684099786505297200,4.374297119140625,-0.11995324411392211,2.0967080753564833,-0.32198782845661045
1684099786515293200,4.384293212890625,-2.3034885390520095,0.6624877574205398,-1.999373782546818
1684099786525289200,4.394289306640625,-4.125446191814541,-1.4581763630628586,-3.4007845945537087
1684099786535285200,4.40428515625,-5.2639796821117395,-3.6263016151621934,-4.426928553989529
1684099786545280300,4.4142802734375,-4.635896883118153,-4.956604754766822,-5.505896925640106
1684099786555276000,4.424276123046875,-2.3443700000166894,-4.7773356905922295,-6.131185710000992
1684099786565272300,4.434272216796875,0.4992039056241512,-3.288321121673286,-6.472091735547781
1684099786575268400,4.444268310546875,3.2181770336061715,-1.313874567373097,-6.042182315424085
1684099786585264000,4.45426416015625,4.647410210779309,0.6828890326753259,-5.858360117989778
1684099786595260200,4.46426025390625,4.0741994041800496,2.326841065327823,-6.049691083618998
1684099786605256200,4.474256103515625,2.6394951021194455,3.319285876518488,-4.629784829978645
1684099786615252200,4.484252197265625,0.7672106991767883,2.6810288895130157,-0.49559915913045405
1684099786625248300,4.494248291015625,-0.30805764891207216,1.6590572473257779,1.5778300397083163
1684099786635244000,4.504244140625,-0.9751806649178266,1.1808622274607419,2.3027692848667503
1684099786645240300,4.514240234375,-1.5775018306672572,0.9646940499559045,3.2701156028971075
1684099786655236400,4.524236328125,-1.4794751716792582,0.3352200888648629,4.196550941607356
1684099786665231000,4.534231201171875,-1.43247376652956,-0.5891244150459766,4.663856318667531
1684099786675227100,4.54422705078125,-0.7340770758599042,-0.8307435524106025,5.3880023676216595
1684099786685223400,4.554223388671875,0.37964755187332627,-0.65589464276582,5.904036996537447
1684099786695219200,4.56421923828125,0.9191115716934204,-0.5892790210857987,5.214546665900945
1684099786705215200,4.57421533203125,1.1928332357615232,-0.7235892918542027,3.2415862585052846
1684099786715211300,4.584211181640625,0.7689584196269512,-1.0245172350168228,1.7812407347097992
1684099786725207300,4.594207275390625,0.42051790692210195,-1.1969079378545284,0.6198106452107429
1684099786735203300,4.604203369140625,0.4363917678803205,-1.2173302558973431,-0.293872763954103
1684099786745199000,4.61419921875,0.4765390693515539,-1.0334273944422603,-0.8241156587034464
1684099786755195600,4.624195556640625,0.7339858904451131,-0.5941933888733386,-1.130769578297436
1684099786765191700,4.634191650390625,1.229241935226321,-0.0022135843962430954,-1.1371002426236867
1684099786775187700,4.644187744140625,1.630596876516938,0.42519612786620853,-0.921896526236832
1684099786785182700,4.6541826171875,1.8292869727373122,0.5763865140259266,-0.5874947680175304
1684099786795178800,4.6641787109375,1.6820084993243216,0.5220943673461675,-0.24108283853083848
1684099786805174500,4.674174560546875,1.253164662605524,0.2611094352543354,-0.10873919166028499
1684099786815170800,4.6841708984375,0.8861410299837589,-0.1349076521396637,-0.0933735724851489
1684099786825166600,4.69416650390625,0.6947656406909227,-0.48937955396324395,0.03741963007301092
1684099786835162600,4.70416259765625,0.7059323468714952,-0.690609982316196,0.18509002541303635
1684099786845158700,4.71415869140625,0.9229138865858316,-0.5679580006375908,0.2960121140703559
1684099786855154700,4.72415478515625,1.2437433387875556,-0.08099486016631126,0.4277762074872851
1684099786865150700,4.734150634765625,1.5504402207404375,0.44558074424713845,0.5609256177827715
1684099786875146800,4.744146728515625,1.6343875009715556,0.7989765412718057,0.5875953057825565
1684099786885142800,4.754142822265625,1.319544137442112,0.8898200107574462,0.5124132235482335
1684099786895138800,4.764138916015625,0.8445107964783907,0.6890089768603443,0.4531324748009443
1684099786905133800,4.7741337890625,0.5265542693644761,0.4354445501580834,0.501457237508893
1684099786915129600,4.784129638671875,0.5146802916973829,0.14388678514808415,0.636985359634459
1684099786925125600,4.794125732421875,0.6434972257465124,-0.21391016944497823,0.877209243248403
1684099786935121700,4.80412158203125,0.8834557364225387,-0.5077013925954699,1.1044178702056406
1684099786945117700,4.81411767578125,1.0511182416945695,-0.7449427532672882,1.1839230763360857
1684099786955113700,4.82411376953125,1.0849293258816004,-0.7475029591441154,0.9721566409215331
1684099786965109500,4.834109619140625,0.8619453308820724,-0.3823676244869828,0.43612054972350595
1684099786975105800,4.844105712890625,0.345900765094161,0.020849895805120467,-0.1265218088492751
1684099786985101800,4.854101806640625,-0.15728431912064553,0.2708446473270654,-0.46899143045097585
1684099786995097600,4.86409765625,-0.46089901714920994,0.6180550337150693,-0.6390311862483621
1684099787005093600,4.87409375,-0.5413818361401558,1.045346964816749,-0.611097177401185
1684099787015089700,4.884089599609375,-0.21149697082340715,1.072812771630287,-0.3322238296583295
1684099787025085700,4.894085693359375,0.4125602259159088,0.7594502943083643,-0.04220306495726108
1684099787035080700,4.904080810546875,1.1031091256946324,0.584886339084804,0.2825178417250514
1684099787045076700,4.91407666015625,1.565515624797344,0.40848172443062064,0.6369266151845455
1684099787055072800,4.92407275390625,1.5559657061636447,0.2204252504274249,0.9187760561287402
1684099787065068800,4.93406884765625,1.2051771690279245,0.17228125111386178,0.9541106966212392
1684099787075064600,4.944064697265625,0.502868857872486,-0.07621040236875415,0.8617460089176893
1684099787085060600,4.954060546875,-0.21294307797849177,-0.4459833336986601,0.6516875464648008
1684099787095057000,4.964056884765625,-0.7502122181028127,-0.5843867189995944,0.24840280615538357
1684099787105052700,4.974052734375,-0.8170604794949292,-0.6389731724508106,-0.28258301591575147
1684099787115048700,4.984048583984375,-0.38731238741278645,-0.5902291614174843,-0.9001496815919876
1684099787125044500,4.99404443359375,0.4015782286524772,-0.1845335605740547,-1.3968199770852923
1684099787135040800,5.004040771484375,1.2608885348558425,0.22430238412171602,-1.4829717816233634
1684099787145036800,5.014036865234375,1.756889845046401,0.38766865350455043,-1.0770827040344475
1684099787155031800,5.02403173828125,1.4785960507571696,0.3747491123072803,-0.42349575368911024
1684099787165027600,5.034027587890625,0.5766852047115564,0.17777005778849123,0.34952100141793485
1684099787175023900,5.04402392578125,-0.43711774406731124,0.07603446127995848,0.9718325235337019
1684099787185019600,5.05401953125,-1.1197001950114964,0.1514987214565277,1.2026625558584927
1684099787195015700,5.064015625,-1.0361720169752835,0.07676233716309071,1.0413581874415279
1684099787205011700,5.07401171875,-0.2766764222204685,0.006927168914675712,0.4497434168845415
1684099787215007700,5.0840078125,0.25252865391373636,0.1365199096418917,-0.2764253700688481
1684099787225003800,5.094003662109375,0.5700152254283428,0.0857106366418302,-0.5583338477239013
1684099787234999600,5.10399951171875,0.520340217155218,-0.20519640937447547,-0.35703590709269045
1684099787244995600,5.11399560546875,-0.17485153999328612,-0.3928030937835574,-0.08728343891650438
1684099787254992000,5.123991943359375,-0.9657996731102466,-0.47897784080579875,0.09663578915148972
1684099787264987600,5.133987548828125,-1.2675760497957467,-0.45447687514722346,-0.06830635124593973
1684099787274983700,5.143983642578125,-1.1264403169214725,-0.37332258663550016,-0.6086895317375659
1684099787284979500,5.1539794921875,-0.7254197221517562,-0.3224285579614341,-1.0774632277846337
1684099787294974700,5.163974609375,-0.026456629770994184,-0.4630315721984952,-1.1225412636563181
1684099787304970800,5.173970703125,0.25946868230998515,-0.8223064903896301,-0.6043482876628637
1684099787314966800,5.183966796875,-0.060957449787855146,-0.5935629820153117,0.13815145636647938
1684099787324962600,5.193962646484375,-0.44777942333519455,0.25322686531096694,0.8208706854328512
1684099787334958800,5.203958740234375,-0.8002811941295862,0.6659807141028344,1.0886942313730716
1684099787344954600,5.21395458984375,-1.006202410647273,0.677912997828424,0.7578849446877837
1684099787354950700,5.22395068359375,-0.8252128062903881,0.4840474722202867,0.04366378515958786
1684099787364946700,5.23394677734375,-0.4138146098911762,0.07336399996168912,-0.5816799442589282
1684099787374942700,5.243942626953125,-0.21255612448751926,-0.2471581398565322,-0.7920660312309861
1684099787384938800,5.253938720703125,-0.19980770207345486,-0.17207038484215736,-0.6274763575330377
1684099787394934500,5.2639345703125,-0.438440517103672,0.27264022550694644,-0.39602848557084797
1684099787404930600,5.2739306640625,-0.8241291027069091,0.620884338856861,-0.46996202904880047
1684099787414926800,5.2839267578125,-1.008561540994048,0.6066057112008333,-0.7969336372673511
1684099787424921900,5.293921875,-1.0640694932043553,0.5710832199860364,-1.1346367751196027
1684099787434917600,5.303917724609375,-0.8325123156487941,0.3995872374983504,-1.3186512802556156
1684099787444913700,5.31391357421875,-0.627550299552083,0.05816559057962149,-1.2114973119601606
1684099787454909700,5.32390966796875,-0.6372083547353744,-0.13183588001150637,-1.006864381687343
1684099787464905700,5.33390576171875,-0.7487333777219056,-0.10021372070349752,-0.7905246470078825
1684099787474901800,5.34390185546875,-0.6865145296961068,0.0061032122459262605,-0.6914104850441217
1684099787484897500,5.3538974609375,-0.5582096368223428,0.013572488680668175,-0.7642261304080485
1684099787494893800,5.363893798828125,-0.4650017762929201,0.0431705948151648,-0.9058455551460385
1684099787504889600,5.3738896484375,-0.2899929999113083,0.37330950795821843,-1.0201382892802358
1684099787514885600,5.3838857421875,-0.12959727077186106,0.6566684036172926,-0.942764249959588
1684099787524881700,5.393881591796875,-0.07456804198920726,0.8265890630796551,-0.6516083437487482
1684099787534877700,5.403877685546875,-0.2724392230421305,1.0307797294776886,-0.326370427455008
1684099787544873700,5.413873779296875,-0.46876726630628107,1.0717093404330313,-0.05772796634733677
1684099787554869800,5.423869873046875,-0.628549831983447,0.8901643672157078,0.05769406407773495
1684099787564864500,5.433864501953125,-0.6740519384860992,0.38607148397359997,0.12321692208498716
1684099787574860500,5.443860595703125,-0.40047231323719024,-0.2737813766323961,0.17058628376424312
1684099787584856800,5.45385693359375,-0.20796236695647238,-0.742854256555438,0.19148674071282148
1684099787594852600,5.4638525390625,-0.3972679642379284,-0.8230049209825694,0.08507219260782004
1684099787604848600,5.4738486328125,-0.7856535338401794,-0.2862392916672863,-0.19790479106158018
1684099787614844700,5.4838447265625,-1.0103864183336495,0.3171870040461421,-0.5108715470641851
1684099787624840700,5.4938408203125,-0.9119470868915319,0.38139983890075235,-0.7204568390473723
1684099787634836700,5.503836669921875,-0.6624883419424294,0.2375873976305127,-0.8206085273653269
1684099787644832500,5.51383251953125,-0.5234533807396888,0.12362508276076986,-0.6491960219100117
1684099787654828800,5.523828857421875,-0.5353682749390601,0.12299099524146877,-0.23002280759513377
1684099787664824800,5.533824951171875,-0.7876929307132959,0.07973432957804762,0.11152005455046891
1684099787674820600,5.543820556640625,-1.0480746362149715,0.19416125715170054,0.20014789381325243
1684099787684816600,5.553816650390625,-1.2597189065545797,0.41627150152400133,0.10763327624499797
1684099787694811600,5.563811767578125,-1.4398743981748818,0.3229157204238698,-0.21059972972273824
1684099787704807700,5.5738076171875,-1.4292776008367538,-0.10267432039706036,-0.7260536361411214
1684099787714803700,5.5838037109375,-1.3823884238898754,-0.5775129607725888,-1.153375377859175
1684099787724799700,5.5937998046875,-1.3402870657414196,-0.8817275974556803,-1.3502078635141253
1684099787734795500,5.60379541015625,-1.223570903852582,-0.9660457568258046,-1.394127377000451
1684099787744791800,5.613791748046875,-0.9951327351003885,-0.6665859134543687,-1.1725780909791588
1684099787754787300,5.623787353515625,-0.7583440866321325,-0.04534578342977911,-0.581271947979927
1684099787764783400,5.633783447265625,-0.7364706929981708,0.36152598505355416,0.02967792990505695
1684099787774779400,5.643779296875,-0.8336965569972992,0.5029432017503306,0.37865357239991426
1684099787784775200,5.653775146484375,-0.9632622635871171,0.3809744165629148,0.5194549587532877
1684099787794771200,5.663771240234375,-1.1514087539613247,0.03614065051260404,0.5681307268559932
1684099787804767500,5.673767578125,-1.3146546118348836,-0.44439518772438164,0.35876492284238337
1684099787814763300,5.68376318359375,-1.2050310385555028,-0.6532406941909342,-0.05381342325210571
1684099787824758300,5.69375830078125,-0.9523755433917045,-0.6283557707160711,-0.44087388173043723
1684099787834754300,5.70375439453125,-0.659796034118533,-0.49357528862003236,-0.7012865668922662
1684099787844750300,5.713750244140625,-0.4510533304393291,-0.20013240398317575,-0.8876517268076538
1684099787854746400,5.723746337890625,-0.3922323081582784,0.12324782867990433,-0.9202429138109087
1684099787864742400,5.733742431640625,-0.5407943916410207,0.22188677434735,-0.9119944331645965
1684099787874738200,5.74373828125,-0.8297031034469604,0.1482201564435847,-0.814739050810039
1684099787884734500,5.753734375,-1.118020863622427,-0.12154505248316563,-0.5937365850165486
1684099787894730200,5.763730224609375,-1.1178969449818135,-0.46229112909473474,-0.24291882178634402
1684099787904726300,5.773726318359375,-0.8721259486347437,-0.7250652096256613,0.08679127148538827
1684099787914722300,5.783722412109375,-0.39037878924608227,-0.7387432410400361,0.348444604358077
1684099787924718300,5.79371826171875,0.05878127479255199,-0.578648394543305,0.46942631473690266
1684099787934714400,5.80371435546875,0.27723171801567076,-0.39893655503727493,0.3732365157872438
1684099787944710100,5.813710205078125,0.1689835247427225,-0.29952903615012766,0.01573152987807989
1684099787954706400,5.82370654296875,-0.054368719047307966,-0.1815821268899366,-0.5157020359605551
1684099787964701400,5.833701416015625,-0.20242168396413326,-0.09578709990028292,-0.9630413143128156
1684099787974697500,5.843697509765625,-0.3623708383798599,-0.08278563430691137,-1.1944149519950151
1684099787984693200,5.853693359375,-0.5486591336667538,-0.21739709824528544,-1.2281596929475664
1684099787994689300,5.863689208984375,-0.7035562653899192,-0.42031456636972725,-1.0455077083364128
1684099788004685300,5.873685302734375,-0.7979881147563457,-0.47778636599890884,-0.7742948122188449
1684099788014681300,5.883681396484375,-0.7864894001424312,-0.24821820683609694,-0.4779837152019143
1684099788024677400,5.893677490234375,-0.5254080219388008,0.083302589119412,-0.09102145640105008
1684099788034673200,5.903673095703125,-0.16558336091041564,0.4644703728299588,0.212250711800158
1684099788044669400,5.91366943359375,0.09547697450518608,0.8313027937285602,0.414023868727684
1684099788054665200,5.923665283203125,0.13859189361035823,1.0259519439950584,0.5290634757064283
1684099788064661200,5.9336611328125,-0.10255319650173186,0.8993285744674503,0.5569017690941691
1684099788074657300,5.9436572265625,-0.8603729669988155,0.5266856771918014,0.5161676076456904
1684099788084653300,5.9536533203125,-1.5665005441814661,0.02257748678270727,0.37711701048240065
1684099788094649300,5.9636494140625,-1.8972101698845625,-0.3987892555210739,-0.06251300866678357
1684099788104645400,5.973645263671875,-1.8485463844805954,-0.5488333211898804,-0.7450250247232616
1684099788114640100,5.98364013671875,-1.5450117659509182,-0.5271474129520356,-1.3142609363421798
1684099788124636400,5.993636474609375,-1.0005489149302245,-0.35292920242622494,-1.8200982886314392
1684099788134632400,6.003632568359375,-0.42162966755628584,-0.012374839861318468,-2.141713045991957
1684099788144628200,6.013628173828125,-0.026990882778167722,0.3122173258747905,-2.085565042312443
1684099788154624300,6.023624267578125,-0.03976502415537834,0.4503044848334044,-1.5798141992628574
1684099788164620300,6.033620361328125,-0.5306850855588913,0.44829380259811874,-0.8655328339800238
1684099788174616300,6.0436162109375,-1.0886480541437864,0.25553010075204075,-0.10256371789574623
1684099788184612400,6.0536123046875,-1.3829659315168856,-0.05313435494676232,0.5228714891985059
1684099788194608000,6.063608154296875,-1.3344886085957288,-0.24187194308191537,0.7691185786247253
1684099788204604400,6.0736044921875,-0.9700012164533137,-0.4045091675378382,0.667946315087378
1684099788214600400,6.083600341796875,-0.46658349252641196,-0.49865818137489254,0.32130759110748763
1684099788224596200,6.09359619140625,0.0021598083823919294,-0.41094124641194935,0.002300385896861553
1684099788234592300,6.10359228515625,0.12416823146045207,-0.3811901051402092,-0.12968348775058983
1684099788244588300,6.11358837890625,-0.14473346510529517,-0.3675368428409099,-0.06743015293329954
1684099788254583300,6.123583251953125,-0.5699795695930719,-0.39570641400963064,0.1450380010098219
1684099788264579300,6.133579345703125,-0.8409434593856334,-0.3932924847356975,0.31357232068032026
1684099788274575400,6.143575439453125,-0.7560358096897601,-0.4406526401951909,0.34959991187304257
1684099788284571400,6.1535712890625,-0.4391448659807443,-0.5097784911304712,0.17988719607293605
1684099788294567400,6.1635673828125,-0.17007950328588484,-0.4445924638621509,-0.08172142087519169
1684099788304563200,6.173563232421875,-0.04119242660999298,-0.3686585403472185,-0.20772183619886636
1684099788314559200,6.183559326171875,-0.07877192341983318,-0.24580869800895452,-0.24621961689740418
1684099788324555500,6.193555419921875,-0.13287351596355437,0.026504852826893327,-0.24381430932134388
1684099788334551300,6.20355126953125,-0.0757470226407051,0.26024507350996134,-0.1891328710630536
1684099788344547300,6.21354736328125,-0.07616963196694851,0.3014912761338055,-0.12040741762220859
1684099788354543000,6.223543212890625,-0.2757844418168068,0.016163637685030697,-0.19857552992999553
1684099788364539400,6.233539306640625,-0.40928982594311236,-0.39061069830581546,-0.23447423404604195
1684099788374535400,6.243535400390625,-0.479711269646883,-0.6434414039060473,-0.018950784185528754
1684099788384531200,6.25353125,-0.39987843899726866,-0.5144784855149686,0.3191021900177002
1684099788394526200,6.263526123046875,-0.19965631090402602,-0.19293197108507154,0.3883256561085582
1684099788404522500,6.2735224609375,-0.032383097210526464,0.10087795676589012,0.28316987589299675
1684099788414518300,6.283518310546875,-0.015229717835783958,0.44252252572029827,-0.04982143100649118
1684099788424514300,6.293514404296875,-0.007945990568399428,0.7535578752689063,-0.49241936005055903
1684099788434510300,6.30351025390625,0.09708967039883136,0.6572631546400487,-0.7740688945084809
1684099788444506400,6.31350634765625,0.22607202414274213,0.22470570422559974,-0.6731725253030657
1684099788454502400,6.32350244140625,0.35675124493241306,-0.4238911827474832,-0.08216916464269161
1684099788464498200,6.333498291015625,0.49721536215543743,-0.9258082928530871,0.7230094461396336
1684099788474494200,6.343494140625,0.7238099488675593,-1.0362772309154271,1.567315659956634
1684099788484490500,6.353490478515625,1.2255261295735835,-0.826387987549603,2.169731225991249
1684099788494486300,6.363486328125,1.9445774857372045,-0.3705211193487048,2.251843399749696
1684099788504482300,6.373482421875,2.5570441979259253,0.088578447163105,1.9878467186212538
1684099788514478000,6.38347802734375,2.573603703060746,0.5305757799655199,1.5347762031406162
1684099788524474400,6.393474365234375,2.013860280799866,0.9444795294448732,1.1025590905964373
1684099788534470400,6.403470458984375,1.2483517093658447,1.1520838767439125,0.9507558332353829
1684099788544466200,6.413466064453125,0.6162117439359426,0.9903209509044885,1.050647409312427
1684099788554461200,6.423461181640625,0.4024807304501533,0.6822106950223445,1.1036007086038588
1684099788564457500,6.43345751953125,0.3131973498880863,0.4656476729810238,0.9853577755391597
1684099788574453200,6.443453369140625,0.33286008173525333,0.3028630028784275,0.7652785620704293
1684099788584449300,6.45344921875,0.6567576893359423,0.0003688333123922348,0.3523547635391354
1684099788594445300,6.4634453125,0.9360358184874057,-0.41555327025204897,-0.12254209156334399
1684099788604441300,6.47344140625,0.8175503088384867,-0.7126172314628958,-0.5403709055319428
1684099788614437400,6.483437255859375,0.6002139643371105,-0.8958283112615346,-0.7989175045609473
1684099788624433200,6.49343310546875,0.4312923989146948,-0.9465022674441337,-0.6912494492635131
1684099788634429200,6.50342919921875,0.25701602846086025,-0.8540051855325699,-0.38405981535762546
1684099788644425500,6.513425537109375,0.32492052090764045,-0.6887967954143881,-0.11141425608843564
1684099788654421200,6.523421142578125,0.6695429366290568,-0.44672553036808965,-0.01561696358770132
1684099788664417300,6.533417236328125,0.931816739487648,-0.3750982180058956,-0.12523059999495745
1684099788674413300,6.543413330078125,0.8189829719901084,-0.5155386620923876,-0.5640744372025132
1684099788684409300,6.553409423828125,0.4564274246931076,-0.8642097686827183,-0.9698661918967961
1684099788694404400,6.563404296875,0.35634149508774277,-1.0667115321457386,-1.2760814278125763
1684099788704400400,6.573400390625,0.6489934850752354,-0.6893018223270774,-1.368338271227479
1684099788714396200,6.583396240234375,1.1234756218969821,-0.09754501295089721,-1.2874039090767502
1684099788724392400,6.593392333984375,1.3881120622336864,0.26437369774729014,-1.192714577817917
1684099788734388200,6.60338818359375,1.3651456126660109,0.3127911071747541,-0.9426017528742551
1684099788744384300,6.61338427734375,1.4738205069184303,-0.01092266829162836,-0.45829292630404234
1684099788754380500,6.623380615234375,1.7377841625601052,-0.48325318003743883,-0.0537768906340003
1684099788764376300,6.633376220703125,1.9900369221419094,-0.6710255764022469,0.17184855878502128
1684099788774372600,6.64337255859375,2.117481398794055,-0.5574754773288965,0.024797464387118814
1684099788784368600,6.65336865234375,2.146775297817588,-0.22014351087659595,-0.4767369300112128
1684099788794364400,6.663364501953125,2.020623783585429,0.21973726816326378,-0.9931918301656841
1684099788804360400,6.6733603515625,1.538113238608837,0.8469766020700334,-1.179487431976199
1684099788814356500,6.6833564453125,0.7684212440103292,1.485790638436377,-1.0879670861423014
1684099788824352500,6.6933525390625,-0.0009545242458581924,1.6269143886119126,-0.8137602689057588
1684099788834348500,6.7033486328125,-0.4202221388459205,1.0080991841793059,-0.41193274166733024
1684099788844344300,6.71334423828125,-0.4466495425224304,0.34335166513323784,0.012024199792742728
1684099788854339300,6.72333935546875,-0.417017205324769,-0.04509440248459577,0.2833981316909194
1684099788864335600,6.733335693359375,0.04552022668123245,-0.255442495533824,0.1999383427157998
1684099788874331400,6.743331298828125,0.45793549116849896,-0.4343663995325565,-0.2548430683359504
1684099788884327400,6.753327392578125,0.5627864432185888,-0.5187856811895967,-0.6683245007500052
1684099788894323700,6.76332373046875,0.5034428583681583,-0.41156215478926894,-1.0269719346925616
1684099788904319500,6.773319580078125,0.34938802268803115,-0.267984581720829,-1.009283717788756
1684099788914315500,6.7833154296875,0.20203473047316073,-0.01367109021693468,-0.64132894179672
1684099788924311300,6.793311279296875,0.1978185740828514,0.5983078384548425,-0.05629354963004589
1684099788934307600,6.8033076171875,0.2707990546196699,1.0972577693179248,0.3703077688589692
1684099788944303600,6.8133037109375,0.44330373922586436,1.2143646840900182,0.527356525658071
1684099788954299400,6.82329931640625,0.6818892079830169,1.193553658990562,0.42574353261590003
1684099788964295400,6.83329541015625,0.7951859168171882,1.0151908960059284,0.170842012090981
1684099788974291500,6.84329150390625,0.7386357620775699,0.6868252030804753,0.011177227574586867
1684099788984287500,6.85328759765625,0.5640256296247244,0.36828064694553614,0.020931144347786902
1684099788994283500,6.863283447265625,0.3001151654750109,0.12630261314064264,0.284418999171257
1684099789004279300,6.873279296875,0.09370996483266353,-0.13861089057177303,0.7978598122015595
1684099789014274600,6.883274658203125,0.021197101807594296,-0.31363398773968215,1.380018772149086
1684099789024270600,6.8932705078125,0.05054945302009582,-0.16159282996952531,1.7035326411291956
1684099789034266400,6.903266357421875,0.22855682669579983,0.10497720877826214,1.7879671203553675
1684099789044262400,6.913262451171875,0.5546078129380941,0.16426467952728271,1.6838909520700573
1684099789054258700,6.9232587890625,0.994229064258933,-0.04722498477250337,1.414787887713313
1684099789064254500,6.93325439453125,1.2538333556473253,-0.5056447523266077,1.1481170189395546
1684099789074250500,6.94325048828125,1.1843325339198112,-0.9631538347765802,1.0360197490230203
1684099789084246300,6.953246337890625,0.9589595979571341,-1.0017609210684895,0.9804968915045261
1684099789094242600,6.96324267578125,0.7181482698440551,-0.6921078196585178,0.8029089122846722
1684099789104238600,6.973238525390625,0.5297615409731865,-0.1446364344716072,0.35718437565267086
1684099789114234400,6.983234375,0.5312736991018057,0.5407207418829202,-0.29167437712699174
1684099789124230400,6.99323046875,0.637727410173416,1.197363864928484,-0.9870859145060181
1684099789134226700,7.003226806640625,0.7255576693177223,1.6289868109717964,-1.4675985636636615
1684099789144222500,7.013222412109375,0.6141968969821929,1.4173609530717133,-1.4123629986539483
1684099789154218500,7.023218505859375,0.4130822039633989,0.57843175611794,-1.0762465454712509
1684099789164214300,7.03321435546875,-0.02651742004752159,-0.0856707430228591,-0.5419640199422836
1684099789174209500,7.04320947265625,-0.4588134430468082,-0.328640125952661,0.25786270841807124
1684099789184205600,7.05320556640625,-0.5391337649524212,-0.4052972491756081,1.0178215367704628
1684099789194201300,7.063201416015625,-0.22276655285656452,-0.44559418825060126,1.539386911806464
1684099789204197400,7.073197265625,0.1302010818839073,-0.3223562233775854,1.6762006898283957
1684099789214193700,7.083193603515625,0.4213052579075098,0.03385463106781244,1.5377975967884063
1684099789224189400,7.093189453125,0.7059592348784208,0.4088856290563941,1.361816175982356
1684099789234185500,7.103185546875,0.750638919082284,0.6435641535028815,1.2223632816284895
1684099789244181500,7.113181396484375,0.5112029709756374,0.7621443556979298,1.201539689308405
1684099789254177500,7.123177490234375,0.2573305012375116,0.5780813352450728,1.1765063703387975
1684099789264173600,7.133173583984375,0.054822308033704754,-0.0007367898419499397,1.033159098894894
1684099789274169300,7.14316943359375,-0.21827684022188185,-0.5077548763483762,0.7215440497621893
1684099789284165400,7.153165283203125,-0.44193303539454937,-0.7953186032861471,0.31190146485865117
1684099789294161700,7.16316162109375,-0.43252574010193345,-0.9384659682437777,-0.25111118833124635
1684099789304157400,7.173157470703125,-0.11691314576566218,-0.8751844594225286,-0.8504255734801291
1684099789314153500,7.183153564453125,0.16149872194528578,-0.6661687840208411,-1.2814242501452564
1684099789324149200,7.193149169921875,0.328097397378087,-0.5503653530627489,-1.4939786210671067
1684099789334144500,7.20314453125,0.4983838214129209,-0.5684852393820882,-1.5553502046138048
1684099789344140500,7.213140625,0.5066542216300964,-0.6017696693465113,-1.43466484683305
1684099789354136600,7.223136474609375,0.3370253847211599,-0.608391133312881,-1.1667480696514247
1684099789364132400,7.23313232421875,0.17770049968361853,-0.6990709366694092,-0.8740919880107044
1684099789374128600,7.243128662109375,0.2764239087641239,-0.7223547816231847,-0.6043146776542068
1684099789384124400,7.25312451171875,0.6764063926577568,-0.5682701353266835,-0.24998715273737906
1684099789394120400,7.263120361328125,1.1404495530515908,-0.20663287191838026,0.11717647287696599
1684099789404116500,7.273116455078125,1.4452268651187419,0.36536154462844134,0.401323084847629
1684099789414112500,7.283112548828125,1.3912345781683921,0.7781964958325028,0.6604772943809628
1684099789424108500,7.293108642578125,1.0952619193255901,0.7108858776256441,0.8360688390865921
1684099789434104300,7.303104248046875,0.720218646377325,0.23742256245762108,0.8246475736230612
1684099789444100400,7.313100341796875,0.42504912061095235,-0.35343554451316594,0.6997697325885296
1684099789454096600,7.3230966796875,0.30213235051631926,-0.7354527481272817,0.4801116671413183
1684099789464092400,7.333092529296875,0.4997755680322647,-0.8280158810123801,0.528609740589559
1684099789474088400,7.34308837890625,0.8205705334424972,-0.5906552778750658,0.8058864667907357
1684099789484084500,7.35308447265625,1.099777350923419,-0.11052563668563961,1.0063932570442558
1684099789494080500,7.36308056640625,1.2189186941325665,0.3796853996656835,0.8748086118474602
1684099789504075500,7.373075439453125,1.2117787592500449,0.6872877060256898,0.6605120734333991
1684099789514071600,7.383071533203125,1.0185235475599765,0.7406839267790317,0.4198708411902189
1684099789524067300,7.3930673828125,0.64064826605618,0.6611524171635508,0.28398236131966115
1684099789534063600,7.403063720703125,0.3003875526756048,0.3240766174294054,0.2925613890945911
1684099789544059400,7.413059326171875,0.1015109939724207,-0.09011120968833565,0.4208800182327628
1684099789554055400,7.423055419921875,0.09162322168648242,-0.2677086873888969,0.5508507984921336
1684099789564051500,7.433051513671875,0.28403321472406384,-0.25990955794528126,0.5458437839850783
1684099789574047500,7.443047607421875,0.6633218701571226,-0.22758652035892007,0.30875849065780636
1684099789584043500,7.45304345703125,1.0133031825631855,-0.1805227174974978,0.015707856741547583
1684099789594039600,7.46303955078125,1.0184621727615595,-0.22795988371595738,-0.38823125582337376
1684099789604035300,7.473035400390625,0.7259732643812894,-0.38703547016754747,-0.6402028603762387
1684099789614031600,7.483031494140625,0.3525660682022571,-0.3921424379177391,-0.6822448895528912
1684099789624027400,7.49302734375,0.006173720198869705,-0.2870050701417029,-0.700160485471785
1684099789634023400,7.5030234375,-0.31733459582328793,-0.11310060174018144,-0.8152917162567377
1684099789644019500,7.51301953125,-0.4535585912585258,0.050515696880966424,-1.028226026406884
1684099789654015500,7.523015380859375,-0.12268646847009658,0.24007351535782218,-1.1787585331797599
1684099789664011500,7.533011474609375,0.2931026563644409,0.44136575690060853,-1.065905184198916
1684099789674007300,7.54300732421875,0.48119537072479723,0.4641816920816898,-0.6578925385847687
1684099789684002300,7.553002197265625,0.3356640332400799,0.5146379138603806,0.04258388096839189
1684099789693998600,7.56299853515625,-0.08587620246708393,0.783537564599514,0.7740718171179294
1684099789703994600,7.57299462890625,-0.2862888846963644,0.9941957465112209,1.4515478848338126
1684099789713990400,7.582990478515625,-0.3783376383185386,0.986575042374432,1.816752485334873
1684099789723986400,7.592986328125,-0.4081728046119213,0.6461885106571018,1.6872984224259853
1684099789733982500,7.602982421875,-0.25549101085066794,0.15510302955880761,1.2011632572114468
1684099789743978500,7.612978515625,-0.2600678172469139,-0.10150295679643749,0.4724605678662657
1684099789753974800,7.622974853515625,-0.3257937966108322,-0.08203837786987424,-0.20060148279964923
1684099789763970600,7.632970458984375,-0.3402905239969492,0.06491239795871079,-0.5562783764988184
1684099789773966800,7.642966796875,-0.4532844504922628,0.4087354799959808,-0.5249783983498811
1684099789783962600,7.652962646484375,-0.7017740581482649,0.6721808108519762,-0.3751952486395836
1684099789793958700,7.662958740234375,-0.7889210112035274,0.5854511333607136,-0.43772798492014403
1684099789803954700,7.67295458984375,-0.8091162424921989,0.31517303387522694,-0.6831380390003323
1684099789813950700,7.68295068359375,-0.8876338988900184,-0.07315408353805541,-1.0259437606886028
1684099789823946800,7.69294677734375,-0.7728893293350935,-0.38233196865171193,-1.3500240313798189
1684099789833942500,7.702942626953125,-0.6439969919621944,-0.3610154782481491,-1.501514277268946
1684099789843938600,7.7129384765625,-0.6196253517717123,-0.08526413498334585,-1.3833756813615559
1684099789853933600,7.72293359375,-0.5731470937132835,0.41669630280733105,-1.0116384642213583
1684099789863929900,7.732929931640625,-0.4133616054266691,0.8353354833107441,-0.5583171888500452
1684099789873925600,7.742925537109375,-0.1551899771898985,0.9622229106020181,-0.2510737789303064
1684099789883921700,7.752921630859375,0.1597469098418951,0.7309711457338184,-0.08657850551754236
1684099789893917700,7.762917724609375,0.09380056572556496,0.25240941144824025,-0.1005646530330181
1684099789903913700,7.772913818359375,-0.2660761177510023,-0.08703991248421371,-0.016557751569151877
1684099789913909800,7.78290966796875,-0.6552279955506325,-0.05263535591606051,0.29536650964319705
1684099789923905500,7.792905517578125,-0.8986603198170662,0.22228607586324214,0.5862298626482486
1684099789933901800,7.80290185546875,-0.913772548753023,0.6268859904244541,0.5148167775586248
1684099789943897600,7.812897705078125,-0.5768377649247646,0.5866355208396912,-0.0177244572609663
1684099789953893600,7.8228935546875,-0.317649653121829,0.14546930509917438,-0.7418573544725775
1684099789963889700,7.8328896484375,-0.23115970267057417,-0.31803010380677876,-1.3463245923399925
1684099789973885700,7.8428857421875,-0.41936522975564,-0.6237136439986527,-1.5288213863894342
1684099789983881700,7.8528818359375,-0.7385568516224622,-0.7659698322702199,-1.3592659069776534
1684099789993877800,7.862877685546875,-0.9699047703415155,-0.563044728828594,-0.9220242442697286
1684099790003873500,7.87287353515625,-0.8676485109597444,-0.11342314822543412,-0.6070037706077098
1684099790013869800,7.882869873046875,-0.41393735948801036,0.1517335896583274,-0.6707686790317297
1684099790023864800,7.89286474609375,0.08137304582893848,0.345094636343047,-0.7767407440662384
1684099790033860600,7.902860595703125,0.4282365184754133,0.44027171458620573,-0.6973112335205077
1684099790043856600,7.912856689453125,0.417975821223855,0.26855973299397157,-0.3822407832369208
1684099790053852700,7.922852783203125,-0.2673170577228069,0.034346670634765174,0.09772504569292068
1684099790063848700,7.9328486328125,-1.1449591394305227,-0.04499116130582988,0.45504590720683336
1684099790073844700,7.9428447265625,-1.4867863714754581,-0.11479587961705401,0.44267917758673425
1684099790083840500,7.952840576171875,-1.2181962250769138,-0.21430355267673729,0.01389934601485729
1684099790093836800,7.9628369140625,-0.751403473713994,-0.10074651240594684,-0.5870210130259395
1684099790103832800,7.972832763671875,-0.23787469013929366,-0.10495930779539048,-1.038578785856068
1684099790113828600,7.98282861328125,0.17586217834055423,-0.20943718874938785,-1.144893672978878
1684099790123824600,7.99282470703125,0.22344985894560812,-0.17963731296509503,-0.8717886795043944
1684099790133820700,8.002820556640625,0.11549509566128253,0.07685475555374287,-0.35131723718494173
1684099790143816700,8.012816650390626,0.08272562948167324,0.3434026281354949,0.08487228612154722
1684099790153812700,8.022812744140625,0.033116672182083126,0.5016836666759104,0.2154012847855687
1684099790163808500,8.03280859375,-0.09039397215247154,0.4684221791956573,-0.0992076854661107
1684099790173804800,8.0428046875,-0.2686263867557049,0.10535374133992008,-0.7108031677782535
1684099790183800600,8.052800537109375,-0.33606910690963265,-0.2650039584748447,-1.2877367942929268
1684099790193796600,8.062796630859374,-0.2900280712246895,-0.3666827102296054,-1.5116510558798908
1684099790203791600,8.07279150390625,-0.11932839021384715,-0.3088612203799188,-1.4489856331303714
1684099790213788000,8.082787841796875,0.06105155781209468,-0.20576242749309165,-1.2099927526161074
1684099790223783700,8.09278369140625,0.10312661247551441,-0.08513598769218661,-0.9113909143134951
1684099790233779700,8.10277978515625,0.028806407767534254,-0.024103125447407364,-0.6079559567660093
1684099790243775500,8.112775390625,-0.20433190149962902,-0.016871767688076942,-0.3176405930325389
1684099790253771800,8.122771728515625,-0.4657756832748651,0.008050784383434801,-0.053763446630537504
1684099790263767800,8.132767822265626,-0.6990846729338168,0.10555369349196553,0.1218684300854802
1684099790273763600,8.142763671875,-0.7575152345925569,0.16192288390779866,0.25522300756424665
1684099790283759600,8.152759521484375,-0.49880058552026746,0.1484578741895966,0.45194531084299083
1684099790293755600,8.162755615234374,-0.10523322936594486,0.2671180097530596,0.6510162230744958
1684099790303751700,8.172751708984375,0.3298334273904562,0.5113756241288036,0.809793118840456
1684099790313747700,8.182747802734376,0.5386684855282307,0.6977171839728951,0.8402502164244652
1684099790323743500,8.192743408203125,0.3026169191628694,0.6426314757626503,0.6939981634497642
1684099790333739800,8.20273974609375,-0.3355944751352072,0.3178751324407756,0.4144797958016395
1684099790343735800,8.21273583984375,-1.075405710732937,-0.12406116348993963,0.10253478406220674
1684099790353731600,8.222731689453125,-1.5887041926831007,-0.5360300998486578,-0.19303280111104248
1684099790363727600,8.2327275390625,-1.560601549270749,-0.8290779572859406,-0.3003808306738734
1684099790373723600,8.2427236328125,-1.1588432878762482,-0.8154697762373835,-0.1833998803690076
1684099790383718700,8.25271875,-0.7961942170768975,-0.5637764771692454,-0.06107844581902027
1684099790393714700,8.262714599609374,-0.5664934810429811,-0.010855436857871246,-0.009106851041316985
1684099790403710700,8.272710693359375,-0.5344347934812307,0.5401183920755982,-0.12573767273426056
1684099790413706800,8.282706787109374,-0.5776052421659231,0.664170449810475,-0.5311506572440267
1684099790423702800,8.292702880859375,-0.5745400093764066,0.5157725439134985,-1.0432014772206544
1684099790433698600,8.302698486328126,-0.4757318446218967,0.4208790318520739,-1.4446005499139427
1684099790443694600,8.312694580078125,-0.4188157791793346,0.2984487483664416,-1.774262127868831
1684099790453691000,8.32269091796875,-0.5178478158175945,0.1038290068575181,-1.9381424842536448
1684099790463686700,8.332686767578124,-0.7451631180197,-0.09373122681640088,-1.554001420353353
1684099790473682700,8.3426826171875,-1.2049737554103135,-0.2978265978801064,-0.8521654028847813
1684099790483678500,8.352678466796876,-1.7416951985239981,-0.4170692277729511,-0.29949001931399105
1684099790493674800,8.3626748046875,-2.079363557323813,-0.37780703857317566,0.062224400983750816
1684099790503670800,8.3726708984375,-1.5604717854112387,-0.31384390416331587,0.012172376091778278
1684099790513666600,8.38266650390625,-1.073493739631772,-0.34820027420818805,-0.11479571522027253
1684099790523662600,8.39266259765625,-0.9003694618225098,-0.3623412469591945,-0.4262576196178794
1684099790533658600,8.40265869140625,-0.625066081520915,-0.3498997350698337,-0.6088707335233688
1684099790543654700,8.412654541015625,-0.4900584761381149,-0.25939967219438403,-0.6292798998236656
1684099790553650700,8.422650634765626,-0.33879531700313087,-0.09311079336311667,-0.5715674233064055
1684099790563646700,8.432646728515625,-0.20976620150804517,-0.033416422313638026,-0.4525201881214976
1684099790573641700,8.442641845703125,-0.17274667666852472,-0.08132971814386546,-0.2994455956503749
1684099790583637800,8.4526376953125,-0.2601677704900503,-0.19770207156371325,-0.14808862075209617
1684099790593633500,8.462633544921875,-0.5306909307777882,-0.3814103237621486,0.0662161009684205
1684099790603629600,8.472629638671876,-1.0974684894591569,-0.4171473710430786,0.055495969511568544
1684099790613625900,8.4826259765625,-1.6044430290848015,-0.3617398469999432,-0.13822569064646958
1684099790623621600,8.49262158203125,-1.7726731051117182,-0.4062815109726041,-0.32563743700534103
1684099790633617700,8.50261767578125,-1.5632307287305593,-0.4302957160275429,-0.5517904174298047
1684099790643613700,8.51261376953125,-0.9678583592057227,-0.37557124234512446,-0.6759475429743528
1684099790653609700,8.522609619140624,-0.25828268739581106,-0.312022022498399,-0.7566542338490486
1684099790663605800,8.532605712890625,0.014602525848150253,-0.375478887886554,-0.8195157636925577
1684099790673601500,8.5426015625,0.10838906304836272,-0.4542194663200527,-0.8197250225290655
1684099790683597800,8.552597900390625,0.2204395712137222,-0.4588545057095587,-0.6330223012223839
1684099790693593900,8.56259375,0.28486966554820536,-0.28935820913910865,-0.25831951227486133
1684099790703589600,8.572589599609374,0.23625614902675152,-0.11558628107607365,0.15573095219880342
1684099790713585700,8.582585693359375,-0.01932137106359005,0.013322495974972844,0.5767910031735897
1684099790723581700,8.592581787109374,-0.19481530061364172,0.09048376932777463,0.9196808960139751
1684099790733577700,8.60257763671875,-0.30502982552349567,0.056420098619163035,1.116364328587055
1684099790743573800,8.61257373046875,-0.3191764242976904,0.15486154895313084,1.1390259499892592
1684099790753568300,8.622568359375,-0.10655424883663654,0.20270525014586746,1.0768319441437721
1684099790763564000,8.63256396484375,0.13313947342336177,0.08810878382474184,0.856246534718573
1684099790773560300,8.642560302734376,0.25094576863646506,-0.16062179298028348,0.3371662544965744
1684099790783556000,8.65255615234375,0.2185100644558668,-0.24399258849769828,-0.26374066054075956
1684099790793552100,8.66255224609375,0.10208733255565165,-0.17350056377574802,-0.7069537988737226
1684099790803548200,8.672548095703124,0.09497779281139374,-0.10364873665347694,-0.8964613484680652
1684099790813544200,8.682544189453125,0.2831587699770927,-0.07509031229764222,-0.8701613705635071
1684099790823540200,8.692540283203124,0.3975415204823017,-0.12702025989070534,-0.5929851821273565
1684099790833536300,8.702536376953125,0.13482172742187976,-0.15167919258996843,-0.19081980123668907
1684099790843532000,8.712531982421876,-0.5019786310344935,-0.273898481939733,0.08911825312823057
1684099790853528300,8.7225283203125,-0.8755687825649976,-0.484374731413275,0.25006606319248675
1684099790863524000,8.732524169921875,-0.6131845050692558,-0.5016771638698876,0.37899990161955355
1684099790873520000,8.74252001953125,-0.061977440485358234,-0.1862657911941409,0.36248803501874205
1684099790883516200,8.75251611328125,0.4161199642241001,0.1971206549465656,0.009825520704686641
1684099790893512200,8.76251220703125,0.5885767180353403,0.28182094550207254,-0.5382002834945917
1684099790903508200,8.77250830078125,0.5526145932942629,0.11166209336966275,-0.9894918066039681
1684099790913504000,8.78250390625,0.33700317288935183,-0.049829029791057106,-1.2973080479755996
1684099790923500300,8.792500244140625,0.11169219624698161,-0.11399141310006379,-1.3326011874139307
1684099790933496300,8.802496337890625,0.053313072514533995,-0.05267915852516889,-1.0362795690029858
1684099790943491300,8.8124912109375,0.10982581785321235,0.26088395593538877,-0.6235659060910343
1684099790953487000,8.822487060546875,0.16625848369300364,0.5915364446237683,-0.37756080872714515
1684099790963483100,8.832483154296876,0.12961013025343418,0.6961369290441274,-0.350708749897778
1684099790973479200,8.842479248046875,-0.1792272708594799,0.4771453646816313,-0.5986471534118056
1684099790983475200,8.85247509765625,-0.7276993575215339,-0.04739493451192975,-0.9825111539363861
1684099790993471200,8.86247119140625,-1.0905553490698336,-0.7663070283353328,-1.1594798322141169
1684099791003467000,8.872467041015625,-0.9365753321915864,-1.3080161967337132,-1.0076903111174702
1684099791013463300,8.88246337890625,-0.3743523680746555,-1.282111355626583,-0.5011351659476757
1684099791023459000,8.892458984375,0.3631131811797619,-0.728889151827991,0.16302373955547808
1684099791033455000,8.902455078125,1.1777648459672927,-0.14604863935708998,0.7294213590085507
1684099791043451100,8.912451171875,1.8013707918077706,0.2746490080460906,1.1118035965427755
1684099791053447200,8.922447265625,1.8009306468248367,0.44364977618455886,1.2477929064393043
1684099791063443200,8.932443115234374,1.1859434762477874,0.17612521319091318,1.125480824239552
1684099791073439200,8.942439208984375,0.4245850102305412,-0.39399230356812476,1.0591805521190165
1684099791083435300,8.952435302734376,-0.19799626873731613,-0.9472475328534841,1.2087468442082405
1684099791093431300,8.962431396484375,-0.5088683905482292,-1.117078614336252,1.5952689580261707
1684099791103427000,8.972427001953125,-0.3422884198158979,-0.7926224960699677,2.014441295558214
1684099791113423000,8.982423095703124,0.32420214350521565,-0.13888181646764278,2.207547161905467
1684099791123419400,8.99241943359375,1.0812047524005175,0.4772589080587029,1.930961632838845
1684099791133415200,9.002415283203124,1.4973551117628812,0.9013064504116773,1.2633727528870105
1684099791143410200,9.01241015625,1.4807546900957822,0.8878750141695141,0.39668578043580055
1684099791153406200,9.02240625,1.0723539219468832,0.5993500409841537,-0.4056988157138228
1684099791163402000,9.032402099609374,0.37954409149885177,0.2968108632326126,-1.132256309723854
1684099791173398300,9.042398193359375,-0.15676877081394194,-0.13717851968109607,-1.5740467217773197
1684099791183394300,9.052394287109376,-0.05952887828946113,-0.6118006494954228,-1.5855279007345437
1684099791193390000,9.06239013671875,0.6238824246942997,-0.843333277131617,-1.0477855901405215
1684099791203386000,9.07238623046875,1.4130261387377976,-0.5984817337170243,-0.3261901024520397
1684099791213382100,9.082382080078125,1.8119681736677884,-0.15492898816615341,0.2881988099709153
1684099791223378200,9.092378173828125,1.7887059560239313,0.19607231493741273,0.7339931969687342
1684099791233374200,9.102374267578124,1.4129741162896154,0.5253402173995971,0.9848632700204849
1684099791243370200,9.112370361328125,0.7281921094745397,0.6683885058969259,1.007786172707379
1684099791253366300,9.1223662109375,0.10542378350198268,0.57813306543231,0.9635548167929052
1684099791263362000,9.132362060546875,-0.040242578539252276,0.2940127569466829,0.9074997520938515
1684099791273358000,9.142358154296875,0.30917291667759417,-0.04693243156671524,0.896730228537321
1684099791283354400,9.152354248046874,0.8482897304952144,-0.3346712228104472,0.8758338632419704
1684099791293350100,9.16235009765625,1.347084470796585,-0.42477702567130327,1.001062417410314
1684099791303346200,9.17234619140625,1.5183096369862557,-0.19588877506405114,1.0048527496039867
1684099791313342200,9.18234228515625,1.2961135774940251,0.18783084855377674,0.6201788940012455
1684099791323338200,9.192338134765626,0.8041711873054503,0.30266514221876856,-0.023321254354715347
1684099791333334300,9.202334228515625,0.37066988016963004,0.21411066045314073,-0.58743017834872
1684099791343329300,9.212329345703125,0.16336100868582726,-0.07432809575349092,-0.766385062007606
1684099791353325000,9.222324951171874,0.162874686473608,-0.36612346891164776,-0.5887535359069704
1684099791363321300,9.2323212890625,0.3451712817758322,-0.31617607343792914,-0.20371669221073388
1684099791373317000,9.242317138671876,0.6118459499418735,0.07514788770377635,0.1415548350691795
1684099791383313200,9.252313232421875,0.9185235426723957,0.4360635588392615,0.3398255368337035
1684099791393309200,9.26230908203125,1.2228466812312602,0.5502168845027685,0.4754860531672835
1684099791403305200,9.27230517578125,1.2539309708029032,0.5801274541199207,0.41279403467178344
1684099791413301200,9.28230126953125,0.8822118738412856,0.5247589103803039,0.09213584738373756
1684099791423297300,9.29229736328125,0.31422610841393467,0.40987727044224737,-0.2505801501944661
1684099791433293000,9.30229296875,-0.2236509344756603,0.2696115984007716,-0.5421154111117125
1684099791443289300,9.312289306640626,-0.40189503951668737,0.05746113210469484,-0.8188245665580034
1684099791453285000,9.32228515625,-0.20252514433860777,-0.20805647498071192,-0.914449717362225
1684099791463281200,9.33228125,0.12609598465263844,-0.357051689183712,-0.7914443922013044
1684099791473277200,9.342277099609374,0.3880944777011871,-0.2631508779540658,-0.4349664112523198
1684099791483273200,9.352273193359375,0.5386293225616217,0.0500841735959053,-0.009519815756380558
1684099791493269200,9.362269287109376,0.49907531080842016,0.3721531044647097,0.3163756876632571
1684099791503265000,9.37226513671875,0.2253250051677227,0.47917760116159913,0.47729544067680835
1684099791513261000,9.382260986328125,-0.19297288761734963,0.3171750213474035,0.48282531001418827
1684099791523257300,9.39225732421875,-0.4519681071966886,0.1270578154221177,0.32075112626850605
1684099791533253000,9.402253173828125,-0.4669733686268329,0.009875497326254845,0.0021197686329483983
1684099791543249200,9.412249267578124,-0.15747721134424209,0.014749240842461585,-0.2483651044934988
1684099791553244200,9.422244140625,0.251363701787591,0.17275281414836643,-0.4333449475303292
1684099791563240200,9.432240234375,0.5784492917746306,0.3398053708285093,-0.5105255101054906
1684099791573236200,9.442236328125,0.7454664848804473,0.36686668849438425,-0.4685875258252024
1684099791583232300,9.452232177734375,0.6391238329678773,0.3010065613567829,-0.24066958155483006
1684099791593228000,9.46222802734375,0.33734102654159065,0.1648492014169693,0.07254355042427778
1684099791603224300,9.472224365234375,0.07830196782052516,0.0444376921415329,0.3645420449391007
1684099791613220000,9.48222021484375,0.004803016367554664,-0.046832186062633986,0.5718614378169179
1684099791623216000,9.492216064453125,0.12440437830388545,-0.09132949943691492,0.6424415792137385
1684099791633212200,9.502212158203125,0.3364519687473774,-0.11028642110228538,0.5929240995898842
1684099791643208200,9.512208251953124,0.5188678065150976,-0.04279255528301,0.5001078687265516
1684099791653204200,9.522204345703125,0.5147030880510807,0.08037731278985738,0.42533056790083645
1684099791663200300,9.5322001953125,0.35271687484979625,0.1566124112084508,0.35052404098063705
1684099791673196000,9.542196044921875,0.045375265252590176,0.12350099972337483,0.26468320208787915
1684099791683192300,9.5521923828125,-0.2617342891544103,0.05808277113437652,0.03222556856125593
1684099791693188000,9.56218798828125,-0.4046609970986843,-0.032272330312430854,-0.2396262099817395
1684099791703184100,9.57218408203125,-0.36062077984213825,-0.13877280313521623,-0.3977031407848
1684099791713180400,9.582180419921874,-0.18227964416742323,-0.20931290478259323,-0.42470279139131306
1684099791723176200,9.59217626953125,0.004309679892659187,-0.14044336669594049,-0.2688531812489033
1684099791733172200,9.602172119140626,0.09774199682772158,0.05441138914525508,-0.0012923778980970383
1684099791743168000,9.61216796875,0.12022329322695731,0.2836073905274272,0.1512839096620679
1684099791753163000,9.6221630859375,0.03694412151575088,0.40570670675933357,0.12027093176096677
1684099791763160300,9.632160400390624,-0.03852992940247059,0.38514205763638015,-0.02720277196317911
1684099791773156000,9.642156005859375,-0.055063131052255625,0.2181158044412732,-0.20969693566411732
1684099791783152000,9.652152099609374,0.010952771168947219,-0.03125438544154167,-0.2853092260092497
1684099791793148200,9.662148193359375,0.08307400452792645,-0.2475724928110838,-0.24462299535572526
1684099791803144200,9.672144287109376,0.1338268711656332,-0.30250615226477384,-0.13833265815228224
1684099791813140200,9.68214013671875,0.21499474981129169,-0.08220745082646608,0.01733838055282831
1684099791823136000,9.692135986328125,0.27322832759320737,0.17052578574866056,0.10504764366596936
1684099791833132300,9.70213232421875,0.20671324367821214,0.23647797508388757,0.15937456939816474
1684099791843128300,9.71212841796875,0.0012573065847158432,0.19375322434008121,0.09882277780175208
1684099791853124000,9.7221240234375,-0.20280103867053983,0.09059709350913762,-0.025376433318853378
1684099791863120100,9.7321201171875,-0.32310207330882545,-0.10600187565088272,-0.11531857005059719
1684099791873116200,9.7421162109375,-0.2988707183718681,-0.3471422895878553,-0.1160302254512906
1684099791883112200,9.7521123046875,-0.059534723508358,-0.4602551662877202,-0.13751198941916226
1684099791893108200,9.762108154296875,0.2610954067289829,-0.51085313462466,-0.1997904586777091
1684099791903104300,9.772104248046874,0.4881406598180532,-0.438632532544434,-0.2546250416710973
1684099791913100300,9.782100341796875,0.7046797164618969,-0.30582565207630397,-0.22771102352142333
1684099791923096000,9.792095947265626,0.7540975351035595,-0.15740999132692812,-0.1670008264929056
1684099791933092000,9.802092041015625,0.580606177547574,-0.08105565044283866,-0.012878770795464515
1684099791943088400,9.81208837890625,0.28544600413143634,-0.10509002150297164,0.19879560242146252
1684099791953084200,9.822084228515624,0.09872107099294662,-0.15095540836006402,0.38344869772195816
1684099791963079200,9.8320791015625,0.0734820003181696,-0.1172001460134983,0.4247530602738261
1684099791973075200,9.8420751953125,0.1655371836811304,-0.14165712639987468,0.33792204129993914
1684099791983071000,9.852071044921875,0.26459201667308807,-0.14562223063856364,0.1269727674871683
1684099791993067300,9.8620673828125,0.30744273188412186,-0.0760500972405076,-0.20305881282389163
1684099792003063300,9.872063232421874,0.30480420007407666,0.04373714265674353,-0.47578269802629947
1684099792013059000,9.88205908203125,0.3266659032702446,0.11518822166919708,-0.5485118341505527
1684099792023055000,9.89205517578125,0.4045908544719219,0.22627748358696698,-0.36249124988913534
1684099792033051100,9.902051025390625,0.33869828636944294,0.289661575999856,-0.05401829817444086
1684099792043047200,9.912047119140626,0.12901099531650542,0.2328556929334998,0.24734452927410602
1684099792053043200,9.922043212890625,0.0431739558160305,0.0501084312543273,0.422431339327991
1684099792063039200,9.932039306640625,0.11357786386311054,-0.1484884337246418,0.48598377404510973
1684099792073035300,9.94203515625,0.3071089698851108,-0.17071604762375353,0.41899844226986166
1684099792083031300,9.95203125,0.43934068081378935,0.000083002108335495,0.15406594159603118
1684099792093027000,9.962027099609376,0.46323418209850786,0.0798360455200076,-0.12680033352971076
1684099792103023400,9.9720234375,0.44727147381305693,0.06965279741883278,-0.34284371561110016
1684099792113019100,9.98201904296875,0.46579204988777634,0.0411108858063817,-0.3754717274934053
1684099792123015200,9.99201513671875,0.6301286256074905,-0.04003215065896511,-0.19564123004376888
1684099792133011200,10.00201123046875,0.6215764858394861,-0.07906067723333834,0.09270897109657525
1684099792143007200,10.01200732421875,0.33050095138847824,0.004585281963646412,0.3431529276907444
1684099792153003300,10.022003173828125,0.34394144771993157,-0.005795534536242485,0.7041100998803973
1684099792162999000,10.0319990234375,0.43792789140641686,0.06293459507972002,0.9187038676753639
1684099792172994000,10.041994140625,0.5169435604542494,0.32811230268627406,0.9736150230363011
1684099792182990000,10.051989990234375,0.5907084693670273,0.5151330039009452,0.7794622779846191
1684099792192986400,10.061986328125,0.6006687223672866,0.4933136785417795,0.4281640377610922
1684099792202982100,10.071982177734375,0.48154783742427826,0.40193420248329637,0.07989566675275564
1684099792212978200,10.081978271484376,0.3752934483170509,0.18371289184093476,-0.1428644563630223
1684099792222974200,10.09197412109375,0.39026305391192434,-0.08194763084650039,-0.21253712752610443
1684099792232970200,10.10197021484375,0.3793769182384014,-0.16761135960668325,-0.18793898510336876
1684099792242966300,10.11196630859375,0.31637539540231224,-0.14895458993166685,-0.0436857047304511
1684099792252962000,10.121962158203125,0.2925526212662458,-0.1644260075688362,0.16631225970685481
1684099792262958300,10.131958251953124,0.24877310077250003,-0.09771861595213413,0.38365795655846596
1684099792272954000,10.1419541015625,0.23477964673340318,0.08296937510967255,0.4524062063530087
1684099792282950100,10.1519501953125,0.22319150027036666,0.33151275877952574,0.30009412268698216
1684099792292946200,10.1619462890625,0.26649638898968697,0.5046773685991763,-0.0007724456772208214
1684099792302942200,10.171942138671875,0.38507249953150746,0.4760355037435889,-0.24836568901538847
1684099792312938200,10.181938232421874,0.4310013070136308,0.2730506329387426,-0.3735261463835835
1684099792322934300,10.191934326171875,0.36094928114414215,0.09624211365878581,-0.23589959067404268
1684099792332930000,10.201929931640626,0.27915011885762214,0.08882789187952876,0.16708528990596533
1684099792342926300,10.21192626953125,0.3058686144351959,0.2692205532565713,0.6571396743908524
1684099792352922000,10.221922119140626,0.370287602853775,0.5060678000442683,1.0166387567266821
1684099792362918100,10.231918212890625,0.4983750535845756,0.6302002295389771,1.159534192749858
1684099792372914200,10.2419140625,0.6196826349169016,0.5953102640740573,0.9987436190739274
1684099792382910200,10.25191015625,0.6969885774374007,0.32119887003600595,0.656752428638935
1684099792392905200,10.2619052734375,0.6590718114972114,-0.08084916808530687,0.21687457220852374
1684099792402901200,10.2719013671875,0.547120087531209,-0.3155959354624152,-0.2228136068686843
1684099792412897000,10.28189697265625,0.3748562259435653,-0.2778036726847291,-0.5768731284990907
1684099792422893300,10.291893310546875,0.23586978005766868,-0.060236588167399165,-0.7479501183897257
1684099792432889300,10.301889404296874,0.2272679559290409,0.1796599631883204,-0.6769298320099711
1684099792442885000,10.311885009765625,0.21474925061762332,0.30403759961575266,-0.36242929056882855
1684099792452881200,10.321881103515626,0.20230945576131343,0.4011648255459964,0.05229162051230669
1684099792462877200,10.331877197265625,0.2564075411736965,0.5104850319646299,0.40595308273583647
1684099792472873200,10.341873291015625,0.35302024171054364,0.45108182588145135,0.6140422909423708
1684099792482869200,10.351869140625,0.3804658825188875,0.15226882904618977,0.6324722661241888
1684099792492865000,10.361864990234375,0.42125791163444515,-0.1167275600656867,0.46451136242747304
1684099792502861300,10.371861328125,0.4288093499273061,-0.16971286193057894,0.2587321847289801
1684099792512857000,10.381857177734375,0.39420623857975,-0.034892741943895814,0.0625105244487524
1684099792522853000,10.39185302734375,0.34006197593808174,0.05770780034214258,-0.14025485838651655
1684099792532849200,10.40184912109375,0.2564461196184158,-0.0005950432837009429,-0.24726328073143958
1684099792542845200,10.41184521484375,0.05495499450266361,-0.15356661377176642,-0.24956366662830112
1684099792552841200,10.42184130859375,-0.10104103837311268,-0.2858890717238188,-0.2730450799807906
1684099792562837200,10.431837158203125,-0.083707041734457,-0.26384587448090313,-0.2811953609496355
1684099792572833300,10.441833251953126,0.18747955089807508,-0.02435308162048459,-0.37297669580727816
1684099792582829300,10.451829345703125,0.555700868871808,0.3528684121496975,-0.5234758848324418
1684099792592825000,10.4618251953125,0.8267956915676593,0.6582223550610243,-0.7001669152125716
1684099792602820000,10.471820068359374,0.750610862031579,0.7023030504584312,-0.798623490050435
1684099792612816100,10.481816162109375,0.34155309127867217,0.5291530536860227,-0.7742258386358618
1684099792622812200,10.491812255859376,-0.1806558423578739,0.21871917716190217,-0.6141504274919629
1684099792632808200,10.50180810546875,-0.5186299061059951,-0.10233370853215455,-0.4157365178644657
1684099792642804200,10.51180419921875,-0.4467582635939121,-0.4174311929531395,-0.31336364636570213
1684099792652800000,10.521800048828124,-0.05812485671043396,-0.6659300068289041,-0.3937374520242214
1684099792662796300,10.53179638671875,0.45736967397928235,-0.6737506174519657,-0.6233043325453996
1684099792672792300,10.541792236328124,0.7459563142240047,-0.33288813878595824,-0.7825155280753969
1684099792682788000,10.5517880859375,0.6350105524301528,0.05257789010778069,-0.7840586658641695
1684099792692784000,10.5617841796875,0.3240332166790962,0.16993278829157352,-0.44261838731020686
1684099792702780200,10.5717802734375,-0.045693829682469364,0.16654657991938293,0.19856822340637445
1684099792712776200,10.581776123046875,-0.22561492802500724,0.1349814480282366,0.8434215399369597
1684099792722772200,10.591772216796874,-0.2180091291964054,0.055339098449423904,1.280287355069816
1684099792732768300,10.601768310546875,-0.15326748469471932,-0.09675729663930832,1.3064146067559719
1684099792742764300,10.611764404296874,-0.11276947008967399,-0.309895458798483,0.9037737173080443
1684099792752760000,10.621760009765625,-0.09840542917251587,-0.5492266313564031,0.41734161497354505
1684099792762755300,10.63175537109375,-0.1326537357330322,-0.6486595038805156,0.06081015027165412
1684099792772751400,10.64175146484375,-0.1546323433071375,-0.5628422650590539,-0.16598785005807876
1684099792782747400,10.651747314453125,-0.1551239262163639,-0.16981610310934483,-0.31338059750050307
1684099792792743200,10.6617431640625,-0.18005261576771736,0.281640182107687,-0.3289996069148183
1684099792802739500,10.671739501953125,-0.12742869456112385,0.273304096243158,-0.23901480008512735
1684099792812735200,10.6817353515625,-0.11104629955887795,0.030645021371543405,-0.14230886830687522
1684099792822731300,10.691731201171875,-0.3015419834077358,-0.2516420803375542,-0.09859744461327791
1684099792832726300,10.701726318359375,-0.48047816236615176,-0.3800763717446476,-0.07735358105450868
1684099792842722300,10.711722412109374,-0.5062199218660592,-0.20957630495913326,-0.19396745161265133
1684099792852718300,10.72171826171875,-0.3678390406578779,0.11001710264161228,-0.37538083433955904
1684099792862714400,10.73171435546875,-0.2683727042555809,0.30523316607587037,-0.6195274443551898
1684099792872710100,10.741710205078125,-0.3102782475709915,0.1987266288384795,-0.8877738918825984
1684099792882706400,10.75170654296875,-0.5126648602217435,-0.006964432185143232,-1.0334510675787925
1684099792892702500,10.761702392578124,-0.6991653369545936,-0.015291969417035579,-0.9576663432762026
1684099792902698200,10.7716982421875,-0.6321820510059595,0.12784593359250573,-0.7271808866053819
1684099792912694300,10.7816943359375,-0.4955179105877876,0.30143958247918634,-0.5004881002157926
1684099792922690300,10.791690185546875,-0.4871159929454326,0.372030500998348,-0.2724734175726771
1684099792932686300,10.801686279296876,-0.5430278497815132,0.2259805464670062,-0.10341916568130254
1684099792942682400,10.811682373046875,-0.5380588291972875,0.014890950868092476,-0.03405161494463682
1684099792952678100,10.82167822265625,-0.6225052911221981,-0.20082970206495374,-0.1648781352505088
1684099792962674400,10.83167431640625,-0.6190320620536803,-0.47682643492557103,-0.4916320090651512
1684099792972670200,10.841670166015625,-0.40186990507543086,-0.5645657643834129,-0.8229051138699054
1684099792982666200,10.851666259765626,-0.12816051596701145,-0.39541831778325137,-0.9809270996153354
1684099792992662500,10.86166259765625,0.03990121775567532,-0.18379582088403404,-0.8096966727286576
1684099793002658300,10.871658203125,-0.005530161598324776,-0.05466309888400137,-0.30950697093755003
1684099793012654300,10.881654296875,-0.25637539246976376,0.21649350046906618,0.23912293663471937
1684099793022650400,10.891650390625,-0.48627077429294585,0.31630707940645514,0.5370362081512808
1684099793032646400,10.901646484375,-0.48581835435032844,0.07970670178560539,0.503852023690939
1684099793042642400,10.911642333984375,-0.30866496715545655,-0.12315784884151071,0.14241291320323943
1684099793052638200,10.92163818359375,-0.06161445239186287,-0.116333957638219,-0.34451574047654865
1684099793062633200,10.93163330078125,0.03146130619049072,-0.013502802711632102,-0.6578259030893444
1684099793072629200,10.941629150390625,-0.06949965268373488,0.265650074358657,-0.7032561133995652
1684099793082625300,10.951625244140626,-0.4058773871511221,0.5387689867606387,-0.5996499007135629
1684099793092621300,10.961621337890625,-0.7116682601749896,0.5293649794036522,-0.3786591253578663
1684099793102617300,10.971617431640626,-0.9307552477359771,0.2744281501033343,-0.19014380167126654
1684099793112613000,10.981613037109375,-0.9218278449147939,-0.04103280646833591,-0.024596096596121785
1684099793122609400,10.991609375,-0.7048240933686495,-0.5391385141927748,0.15712299107909203
1684099793132605400,11.00160546875,-0.2947901710599661,-0.8125360608730464,0.26292788285315033
1684099793142601200,11.011601318359375,0.08649287306070327,-0.5495673710854724,0.2327794128268957
1684099793152597500,11.021597412109376,0.2081102509945631,0.007683142947708256,0.14359832359552382
1684099793162593300,11.03159326171875,0.17316870147287844,0.335755912774615,0.08247457733005285
1684099793172589300,11.04158935546875,0.05727554640471935,0.3764471483968198,0.10830021572113037
1684099793182585300,11.05158544921875,-0.16670038224160671,0.31203542996924366,0.2165001859381795
1684099793192581400,11.061581298828125,-0.3543734098851681,0.1878920041564852,0.3213227886766195
1684099793202577400,11.071577392578124,-0.40173371147513387,0.05168336155400611,0.3376479005336761
1684099793212573200,11.0815732421875,-0.2612666716426611,-0.1047969477073755,0.208317464004457
1684099793222569200,11.0915693359375,-0.03733633570373058,-0.09236743678306229,-0.018946984793245792
1684099793232565500,11.1015654296875,-0.043860769036412235,0.09667626729235053,-0.2916281998977065
1684099793242561300,11.111561279296875,-0.3034241438925266,0.30303887090198695,-0.607089403064549
1684099793252557300,11.121557373046874,-0.6679635584831237,0.335429457299225,-0.8451485098600388
1684099793262553000,11.131552978515625,-0.9430769691705703,0.12075213027349672,-1.0259683106079698
1684099793272549400,11.14154931640625,-0.9621493339091539,-0.10402938826782629,-0.9610653380647302
1684099793282545400,11.15154541015625,-0.758456899356842,-0.23391923051178454,-0.7135910449311137
1684099793292540400,11.16154052734375,-0.4706383208751678,-0.34265257695317264,-0.27244536052197216
1684099793302536200,11.1715361328125,-0.3460959954053163,-0.3735157711200416,0.1271294193536043
1684099793312532500,11.181532470703125,-0.27549393443763254,-0.051700399453775026,0.3053396221250295
1684099793322528300,11.1915283203125,-0.13354337804913521,0.4069360658911988,0.28882103352248667
1684099793332524300,11.201524169921875,-0.10799626433849334,0.6761336401309818,0.10921206986904143
1684099793342520300,11.211520263671876,-0.19679098460078237,0.6209612034853548,-0.011520341923832892
1684099793352516400,11.221516357421875,-0.21770225520431993,0.3072348612871021,0.0420870373621583
1684099793362512400,11.231512451171875,-0.13973288033902645,-0.10285764107471332,0.1288312548354268
1684099793372508200,11.241508056640624,-0.08384849603176116,-0.2988487440020777,0.05974632043242454
1684099793382504200,11.251504150390625,0.17473346657156943,-0.20864561824658884,-0.18501842148154973
1684099793392500500,11.26150048828125,0.4426221867024898,0.11103285555541514,-0.5155065133884549
1684099793402496300,11.271496337890625,0.432806310608983,0.4350453947726637,-0.8463090780720114
1684099793412492300,11.2814921875,0.21206044992506504,0.5699951690210029,-0.935667861957848
1684099793422488300,11.29148828125,-0.04914835405051708,0.5683411912688985,-0.6495648552224039
1684099793432484400,11.301484375,-0.25889000563919545,0.49060880349725483,-0.10714578498899936
1684099793442480400,11.31148046875,-0.4187245937645435,0.29243504103487356,0.38749125111103055
1684099793452476200,11.32147607421875,-0.3933516675770283,-0.016278669766290114,0.644186084793508
1684099793462472200,11.33147216796875,-0.2905132243931293,-0.2731108204270713,0.5952388062730432
1684099793472468500,11.341468505859375,-0.20721476345956324,-0.3652872372832149,0.23539514828324318
1684099793482464300,11.35146435546875,-0.2869464718222618,-0.3792429165951907,-0.23019348798692224
1684099793492460300,11.361460205078124,-0.4383721280425787,-0.27549134062174707,-0.5332189879506826
1684099793502456300,11.371456298828125,-0.5697323168337345,-0.10642855836404487,-0.6645888213530182
1684099793512452400,11.381452392578124,-0.6135246968090534,-0.04036636018254794,-0.5763491046249866
1684099793522447400,11.391447265625,-0.6248755273848772,-0.15297736090803518,-0.41422932817190883
1684099793532443400,11.401443359375,-0.5230050524502993,-0.2565820757566951,-0.27536358605623246
1684099793542439200,11.411439208984374,-0.32092531379163264,-0.10370391917312517,-0.14757219566255808
1684099793552435500,11.421435546875,-0.22791911331415174,0.24067367320805785,-0.022728841419517993
1684099793562431200,11.43143115234375,-0.3110504009872675,0.521585760236904,0.04587006303220987
1684099793572427300,11.44142724609375,-0.5226116692185402,0.6097227837754413,0.08897504526525735
1684099793582423300,11.45142333984375,-0.7347504450768232,0.5012135649461299,0.07405249368250369
1684099793592419300,11.46141943359375,-0.8835375694870948,0.12686090461052954,0.02435147418528795
1684099793602415400,11.471415283203125,-0.9028431584596633,-0.34415315424185244,-0.13278905255049467
1684099793612411100,11.4814111328125,-0.8429910395652055,-0.5450593190765008,-0.46346097659170626
1684099793622407200,11.4914072265625,-0.7542956880241632,-0.47196566048879174,-0.766707718090713
1684099793632403500,11.501403564453126,-0.7445721663892269,-0.234037577928137,-0.9115463971361517
1684099793642399200,11.511399169921875,-0.8038356717407703,-0.005228128178138286,-0.8032298148021102
1684099793652395300,11.521395263671875,-0.8514251059114932,0.0662886730142869,-0.4746709373921156
1684099793662391600,11.5313916015625,-0.8442138593584299,-0.01125785506274551,-0.12728139504492283
1684099793672387300,11.54138720703125,-0.7560358096897601,-0.18579042876735327,0.20370091011971234
1684099793682383400,11.55138330078125,-0.5566325967639685,-0.32309655688349154,0.3550210601389408
1684099793692379100,11.561379150390625,-0.35415070704519747,-0.2101170059734024,0.3386854268878698
1684099793702375400,11.57137548828125,-0.18515081568956374,0.14123692822642622,0.21544424714446067
1684099793712371500,11.581371337890625,-0.23662498233914375,0.4929897438170388,0.09648118311166763
1684099793722367200,11.5913671875,-0.47884442368447777,0.48688649503849446,-0.024742227068543433
1684099793732363300,11.60136328125,-0.7087111639350653,0.08786883758902549,-0.07166326045840979
1684099793742359300,11.611359375,-0.8698544965714216,-0.3477294783586636,-0.18030249887555835
1684099793752355300,11.621355224609376,-0.8051794875651598,-0.5850359036233276,-0.398465941850841
1684099793762350800,11.631350830078125,-0.5319307017058134,-0.556879557262361,-0.6469611024647951
1684099793772346600,11.6413466796875,-0.4126332911521196,-0.46130427348185327,-0.7806707769915461
1684099793782342700,11.6513427734375,-0.4443237299233675,-0.2823734282856807,-0.8696586817383766
1684099793792338700,11.661338623046875,-0.4858054948687553,-0.08040555250365286,-0.9838196061864495
1684099793802334700,11.671334716796874,-0.5193190574139356,0.05723466640505939,-0.9235784879744052
1684099793812330800,11.681330810546875,-0.49709787325561045,0.14202698262557387,-0.671931877592206
1684099793822326800,11.691326904296876,-0.503991724422574,0.14868742689546197,-0.345587461361289
1684099793832322800,11.70132275390625,-0.4485790492802858,0.04056044884938746,-0.22854747434556483
1684099793842318800,11.71131884765625,-0.30864626245498655,-0.09672105628214776,-0.2971361496642232
1684099793852314600,11.721314697265624,-0.14293079959750174,-0.13100319204702973,-0.47354339466691014
1684099793862310700,11.731310546875,0.04306348117887974,-0.21928930520005524,-0.5177168829143047
1684099793872307000,11.741306884765624,0.15816168647706508,-0.27133133486546573,-0.44851387508958573
1684099793882302700,11.751302734375,0.06111760878562927,-0.262031518535316,-0.2908279894307256
1684099793892298800,11.761298828125,-0.13425298762321472,-0.2152952671278268,-0.19367519066780806
1684099793902294500,11.77129443359375,-0.3249696207463741,-0.08487667003571987,-0.26132512383162976
1684099793912290800,11.781290771484375,-0.38539106396138667,0.16880444184876978,-0.44943537384867666
1684099793922286800,11.791286865234374,-0.2495575291484594,0.37824396868571636,-0.6537991317912936
1684099793932282600,11.80128271484375,-0.015221534529328345,0.3712198422025889,-0.6892804872781038
1684099793942278700,11.811278564453126,0.09403554352521896,0.1302658176831901,-0.6863041018158197
1684099793952274700,11.821274658203125,0.06223404559493065,-0.2994176116649061,-0.5671487300813198
1684099793962270700,11.831270751953125,0.1312123047530651,-0.6377953608430922,-0.37457010247856376
1684099793972266800,11.841266845703124,0.23675474619865416,-0.7055476584028452,-0.1392424664735794
1684099793982262500,11.851262451171875,0.31342472890317435,-0.5220286086335778,0.09490385079234838
1684099793992257800,11.8612578125,0.21716098793447017,-0.1428008165422827,0.2322691252171993
1684099794002253800,11.87125390625,-0.023401918375492093,0.14569120422154663,0.3627133682072162
1684099794012249600,11.88124951171875,-0.26356910336613654,0.09301993674188852,0.4322907623022795
1684099794022245600,11.89124560546875,-0.28138006986677644,-0.16970409410223364,0.46429479706734417
1684099794032242000,11.901241943359375,-0.1339355922371149,-0.4311651192732155,0.38800972202718254
1684099794042237700,11.91123779296875,0.1621872887313366,-0.5659054520219564,0.26779607341140504
1684099794052233700,11.921233642578125,0.4678998358219862,-0.5740057563692331,0.1282756667792797
1684099794062229800,11.931229736328126,0.5445142889469862,-0.4182539075128734,-0.004352057729661464
1684099794072225800,11.941225830078125,0.4524626127153635,-0.2382043604850769,-0.053178340218961236
1684099794082221800,11.951221923828125,0.1716805087417364,-0.11418737406358122,-0.017125906845927238
1684099794092217600,11.961217529296874,-0.1891431001961231,-0.12026143328025936,-0.027466391335427758
1684099794102213600,11.971213623046875,-0.4476701177418232,-0.3215209415972233,-0.08825374525338411
1684099794112210000,11.9812099609375,-0.4328811294108629,-0.6000220950268209,-0.12489859156161547
1684099794122205700,11.991205810546875,-0.25429975523948667,-0.7649012531906366,-0.10634440547823905
1684099794132201700,12.00120166015625,0.05639408739507198,-0.6116188631877303,-0.05565174459517002
1684099794142197500,12.011197509765625,0.35247079113423824,-0.2194382852166891,-0.0660351914435625
1684099794152193800,12.02119384765625,0.5014946469098329,0.253081319360435,-0.08581891932189464
1684099794162189800,12.03118994140625,0.3612421266108751,0.5434742783747614,-0.11959756254404783
1684099794172185600,12.041185546875,-0.15629355451762675,0.36982773025706406,-0.28248569302111864
1684099794182182000,12.051181884765626,-0.7126046642422675,-0.22055939820110795,-0.5183800229981541
1684099794192177700,12.061177734375,-0.985603274732828,-0.8486696697235107,-0.6276622354939579
1684099794202173700,12.071173583984375,-0.8025187439233065,-1.1926987957268953,-0.48143093304634094
1684099794212169700,12.081169677734374,-0.1284329031676054,-0.8705285964407026,-0.12819091110527514
1684099794222165800,12.091165771484375,0.37641631486713883,-0.1383991475172341,0.24723697724640367
1684099794232161800,12.101161865234374,0.5395242255747318,0.42256797131970525,0.4303460579752922
1684099794242156800,12.11115673828125,0.47687692300379275,0.6050086512677371,0.47612347428798674
1684099794252152600,12.121152587890625,0.11377075608670711,0.5490443335920572,0.5072781987473368
1684099794262148600,12.131148681640624,-0.18806816444098948,0.3782616504728794,0.5723845849081873
1684099794272145000,12.141144775390625,-0.08285831595063209,0.20740385629087685,0.7586588516697287
1684099794282140700,12.151140625,0.3472521797031164,0.2834136215209961,1.017343690125644
1684099794292136700,12.16113671875,0.7908727297931909,0.559169714026153,1.2778656808808446
1684099794302132700,12.1711328125,0.9798439805537462,0.73030837097615,1.2337807476997376
1684099794312128800,12.181128662109375,0.7587789709180593,0.3994156437911093,0.7372448922410607
1684099794322124800,12.191124755859375,0.339326647400856,-0.17226152350008486,-0.06869622734636067
1684099794332120600,12.20112060546875,-0.10256664050519466,-0.576828558705002,-0.7197831775695085
1684099794342116900,12.211116943359375,-0.17761106783449648,-0.5837266476556658,-1.042944579850137
1684099794352113000,12.22111279296875,-0.06482172400057315,-0.2239060782805085,-0.9465817624211311
1684099794362108700,12.231108642578125,0.07672258967459201,0.16889467741549014,-0.3953036784276366
1684099794372104700,12.241104736328126,0.1375081900268793,0.5031751473426819,0.17110913859456778
1684099794382100700,12.251100830078125,-0.051043958538770674,0.6712063397966325,0.3444134491458535
1684099794392096800,12.2610966796875,-0.21992460742890835,0.5562693164095283,-0.10861351945400237
1684099794402092800,12.2710927734375,-0.16129589284956455,0.3115852385163307,-0.8709963600829244
1684099794412088600,12.281088623046875,-0.16717910566926,0.09200023830533027,-1.5498250114515424
1684099794422084900,12.2910849609375,-0.05777414357662201,-0.037383681976795195,-1.7838643612116574
1684099794432080600,12.30108056640625,0.030099370187520978,-0.07325549808591604,-1.4950038724616168
1684099794442076700,12.31107666015625,0.05286942040026187,-0.10625585041195154,-0.7296297410622239
1684099794452072700,12.32107275390625,0.21448563124537467,-0.10361790312379598,0.15447773726731537
1684099794462068700,12.33106884765625,0.5316688358992337,-0.1396954709380865,0.8040037217840552
1684099794472064800,12.341064697265624,0.7773287730872631,-0.16551994028538464,1.102658751578629
1684099794482060500,12.351060546875,0.7973673525094985,-0.14107114320546388,0.9867755333825945
1684099794492055600,12.3610556640625,0.5545861856281757,-0.16597382153272627,0.6070268592223524
1684099794502051800,12.3710517578125,0.19086627072691917,-0.3222092161223292,0.2436523967579007
1684099794512047900,12.3810478515625,-0.09827800340056418,-0.4213032120808959,0.11098492476046085
1684099794522043600,12.391043701171874,-0.11058511178791522,-0.3989250837951898,0.21051994248479602
1684099794532039700,12.401039794921875,0.20442250239253043,-0.27053222037702795,0.43219548523426055
1684099794542035700,12.41103564453125,0.6059855334758758,-0.1829240795508027,0.6424938939228654
1684099794552031700,12.42103173828125,0.9151602037191391,-0.12494155392050742,0.7433911399111152
1684099794562027800,12.43102783203125,1.0828624564796685,0.02111176161170006,0.6758841223493218
1684099794572023600,12.4410234375,1.0547165584474802,0.019348551331460476,0.4814259646102786
1684099794582019800,12.451019775390625,0.685372958445549,-0.18642448888719082,0.19206366381794213
1684099794592015600,12.461015625,0.2774696184247732,-0.40791064654439685,-0.009102467127144336
1684099794602011600,12.47101171875,0.02128770270049572,-0.5880673072084784,-0.11904460483640432
