time,seconds_elapsed,z,y,x
1683588369930584300,0.023584228515625,-0.003291442760825157,0.04373509683012962,0.0024257658421993253
1683588369940591400,0.03359130859375,-0.010061959809064864,0.05518061995208263,-0.0008820435315370559
1683588369950598400,0.043598388671875,-0.019462825360894203,0.07302490420043468,0.018715514124929902
1683588369960606500,0.0536064453125,0.04064472959935665,0.03696341073811054,-0.005017535901069641
1683588369970613500,0.063613525390625,0.03263034996986389,0.017159224593639374,-0.060117491832375525
1683588369980620300,0.073620361328125,0.02625906137228012,0.004976034846901893,-0.07359627434760331
1683588369990628600,0.083628662109375,0.02717325360774994,0.0036363106757402418,-0.02473229019641876
1683588370000635400,0.093635498046875,0.07728782234191894,0.017391279783844946,-0.0028778935238718984
1683588370010642200,0.10364208984375,0.10368541540205478,0.020444237613677977,0.055254561971127984
1683588370020650500,0.113650390625,0.14055880976915358,0.027036475485563278,0.14465513917207717
1683588370030657300,0.1236572265625,0.19675357519984243,0.04708966795504093,0.19759236411154268
1683588370040664300,0.133664306640625,0.2623170574784279,0.044700142470002174,0.1867120736569166
1683588370050672400,0.14367236328125,0.27183482740819453,0.03566986379623413,0.24758535229265688
1683588370060679400,0.153679443359375,0.3540431550174951,0.041540801656246185,0.3599661153256893
1683588370070686500,0.1636865234375,0.38605040465295315,0.06941840414106845,0.45394466796666383
1683588370080694500,0.173694580078125,0.30869536229372024,0.1372510003954172,0.5367819411292671
1683588370090701300,0.183701416015625,0.2647200269669294,0.18033026366531849,0.5411839754804969
1683588370100708600,0.19370849609375,0.31983518046736714,0.11772621571421622,0.4719277761638164
1683588370110716400,0.20371630859375,0.48668461579084393,0.025234394499659536,0.40774259650111194
1683588370120723500,0.213723388671875,0.4238882601380348,-0.00028232407271862027,0.41762715391665695
1683588370130730500,0.22373046875,0.31398002469837666,0.3282505421131849,0.13319149587154389
1683588370140738600,0.233738525390625,0.36227263870239257,0.37246085523962974,0.06531915212869643
1683588370150745300,0.243745361328125,0.11925474045574665,0.3595446750432253,0.2662403684020042
1683588370160752400,0.25375244140625,-0.251893278619647,0.0978898808658123,0.6153226861417294
1683588370170760400,0.263760498046875,-0.059064767909049985,-0.14486556705236434,1.03586163585186
1683588370180767200,0.273767333984375,0.5892115088075399,0.15429448965489864,0.9930115051627159
1683588370190774500,0.2837744140625,0.8112725437432527,0.539637622821331,0.6865978240653872
1683588370200782300,0.2937822265625,0.47331192399859423,0.6078945819675922,0.40066403641700743
1683588370210789400,0.303789306640625,-0.36045068397223945,0.4025526266425848,0.16850129418373108
1683588370220796400,0.31379638671875,-1.0975994223624468,0.0031260230660438535,0.11845540677160024
1683588370230804500,0.323804443359375,-1.0342401721298693,-0.2565314598143101,-0.02246580656915903
1683588370240811300,0.333811279296875,-0.6082084702223539,-0.2031511672824621,-0.3946902227044105
1683588370250818600,0.343818603515625,-0.10320318484306334,-0.0920247882246971,-0.6931026759147644
1683588370260825300,0.353825439453125,0.439272291752696,-0.037329321441054344,-0.8106094036594033
1683588370270833400,0.36383349609375,0.5230734415113926,0.004409048613905907,-0.8115580826863646
1683588370280840400,0.37384033203125,0.4896817517802119,-0.019397358909249304,-0.5372992430016398
1683588370290847200,0.38384716796875,0.45174394305199383,0.06168576406240463,-0.17010229963958262
1683588370300855300,0.393855224609375,0.2666501182466745,0.17227379845976828,0.14754384635090828
1683588370310862300,0.4038623046875,0.2109633023381233,0.16244564740657805,0.35620734731405973
1683588370320869400,0.413869384765625,0.2813765627354383,0.05966799449920654,0.40055823795497414
1683588370330877200,0.423877197265625,0.3149003544136882,0.009231938725709914,0.37014234916418787
1683588370340884500,0.433884521484375,0.3056459115952253,0.03842003928720951,0.34893560274541374
1683588370350891300,0.443891357421875,0.14065262553244828,0.11720832931995391,0.24864888987094164
1683588370360899300,0.4538994140625,0.06145312435030937,0.038111996251344676,0.0795794404104352
1683588370370906400,0.46390625,-0.05608253722786903,0.010898410633206367,-0.2517638070210814
1683588370380913400,0.473913330078125,-0.24867607013881204,-0.13685820168554783,-0.26500264330059287
1683588370390921500,0.48392138671875,-0.25824001729786394,-0.22122224602401255,-0.19366291570812463
1683588370400928500,0.493928466796875,-0.2541366736322641,-0.1957178024113178,-0.20119389573484658
1683588370410935300,0.503935302734375,-0.2257821012854576,-0.028931495451927185,-0.28339783942997454
1683588370420942800,0.51394287109375,-0.1834507337734103,0.08782382940351963,-0.2759863941296935
1683588370430949600,0.52394970703125,-0.12033084525465965,0.008895254117250442,-0.18173311620056629
1683588370440956700,0.533956787109375,-0.16864654787331818,0.11972352701127528,-0.2025663531318307
1683588370450964700,0.54396484375,-0.1980406924009323,0.10436287627220153,-0.0828887110888958
1683588370460971500,0.553971435546875,-0.017722119173407554,0.03342179260849953,0.08840718224942684
1683588370470978800,0.563978759765625,0.021513035888969897,0.14928338349461553,-0.004133738803863525
1683588370480986600,0.573986572265625,0.15846856046915053,0.11055822378098965,-0.1416653097063303
1683588370490993700,0.58399365234375,0.16770108371675013,0.010977905610203743,-0.2898582676157355
1683588370501000700,0.594000732421875,0.05356149431765079,-0.06726794810891151,-0.3245119401067495
1683588370511008800,0.6040087890625,-0.017947452361881732,-0.0875333220243454,-0.21287410439550875
1683588370521015600,0.614015625,-0.13973521842658518,0.060794952702522276,-0.10844371584504842
1683588370531022800,0.62402294921875,-0.25983576205670833,0.17183131538927554,0.11587094323635101
1683588370541030700,0.63403076171875,-0.5048614929944276,0.16770575989186762,0.3261190830424428
1683588370551037700,0.64403759765625,-0.6611556320339441,0.1747743831038475,0.23929449380934237
1683588370561044700,0.654044677734375,-0.5514116472452879,0.29521804108321664,-0.5220554966405033
1683588370571052800,0.664052734375,-0.5129118207201361,0.18448095360398292,-0.8887941748410463
1683588370581059600,0.6740595703125,-0.5050190216436982,-0.11819032609462737,-0.6147378719910979
1683588370591066600,0.684066650390625,-0.5983043313235045,-0.1780021129786968,-0.49176118840277194
1683588370601074700,0.69407470703125,-0.5915501808881759,-0.136031687733531,-0.31577830629199743
1683588370611081700,0.704081787109375,-0.6675599461182952,0.02294949843287468,-0.292410582447052
1683588370621088800,0.7140888671875,-0.7172241407364607,0.11909048980474471,-0.36540129211694
1683588370631096600,0.7240966796875,-0.7352908355638385,0.13205635436177254,-0.4557037865936756
1683588370641104000,0.734103759765625,-0.82457509290874,0.11285071863234042,-0.47610681541413064
1683588370651110700,0.744110595703125,-0.9425131978079676,0.058710547643899914,-0.539635869255662
1683588370661118700,0.75411865234375,-0.9078682931452989,0.05540449183583259,-0.7348319858804345
1683588370671125800,0.764125732421875,-0.8529933781415223,0.055579263880848884,-0.8073325739458203
1683588370681132800,0.7741328125,-0.7428036954119801,0.04349427381157875,-0.541981847859919
1683588370691140600,0.784140625,-0.5515411188438535,-0.01507189692556858,-0.13299714234322307
1683588370701148000,0.79414794921875,-0.4311649731427431,-0.05958206978142261,-0.23844898289591074
1683588370711154700,0.80415478515625,-0.4509446093678474,-0.02225041025280952,-0.3758706636831164
1683588370721162800,0.814162841796875,-0.5373363601416349,0.038485505738854404,-0.42875089773833747
1683588370731169800,0.824169677734375,-0.633303748512268,0.01515548355579376,-0.49499973193258046
1683588370741176600,0.834176513671875,-0.49503334194123744,-0.049229602593183514,-0.42666123198270794
1683588370751184600,0.8441845703125,-0.20845102725625037,-0.0937415290147066,-0.36529578591585155
1683588370761191700,0.854191650390625,-0.10853343995511532,-0.06175590668916702,-0.3584042728364467
1683588370771198700,0.86419873046875,-0.006283902575075626,0.11859189263284206,-0.4123942216992378
1683588370781206500,0.87420654296875,-0.11150953315645455,0.22570669796168802,-0.5516738053128123
1683588370791213800,0.8842138671875,0.13847645053714513,0.7862842329591512,-1.044644077244401
1683588370801220600,0.894220703125,0.4978080673515796,1.4567594820022582,-1.792615822944045
1683588370811228700,0.904228759765625,-0.07353226920068263,0.7371282801240682,-1.0959703598558903
1683588370821235700,0.914235595703125,-0.08007979114800691,0.17298457707762718,-0.5542673289373516
1683588370831242500,0.924242431640625,-0.3312453400149941,-0.03784779235720634,-0.10698124207705259
1683588370841250600,0.93425048828125,-0.29280045854747294,-0.20603695185184479,0.20004823283106088
1683588370851257600,0.944257568359375,-0.31565847930461166,-0.3316717487335205,0.3432192709252238
1683588370861264600,0.9542646484375,-0.44639001480340956,-0.27165830179750916,0.31223902624994515
1683588370871271700,0.964271728515625,-0.5125958866387605,-0.2801981666058302,0.3915469562426209
1683588370881279700,0.97427978515625,-0.4989946467876434,-0.356122883901,0.5430100218638777
1683588370891286500,0.98428662109375,-0.4216705840885639,-0.4515285467356443,0.7378133397787809
1683588370901294600,0.994294677734375,-0.34835809511840343,-0.44843350332975385,0.7232944005608558
1683588370911301600,1.004301513671875,-0.05986497837603092,-0.3684446053355932,0.6129726158842445
1683588370921308700,1.01430859375,0.11423895812034607,-0.11363280892074107,0.3920306481063366
1683588370931316700,1.024316650390625,0.06810849058628082,0.28444296456873414,-0.11834317856878042
1683588370941323800,1.03432373046875,0.054315527555346486,0.24706162067949772,-0.0714703682348132
1683588370951330600,1.04433056640625,0.13239186992645263,0.13152034778892993,-0.004431844967603683
1683588370961337600,1.054337646484375,0.2659323253661394,0.18798691589832306,-0.1507061097741127
1683588370971345700,1.064345703125,0.48461599282324314,0.23180676840245723,-0.1902265115186572
1683588370981352400,1.0743525390625,0.5632008692383765,0.3134212217718363,-0.2000315739572048
1683588370991359700,1.08435986328125,0.5556862558245659,0.345234994661808,-0.3141188486471772
1683588371001367600,1.094367431640625,0.23790508527755735,0.23092414034903047,-0.3538119766101241
1683588371011374600,1.10437451171875,-0.31460780120790005,0.12768822228014468,-0.5233353073179722
1683588371021381600,1.114381591796875,-0.9678028296262026,0.021274843218922614,-0.30201573839932677
1683588371031389700,1.1243896484375,-1.531716231048107,-0.46944297361075876,0.5288830045729875
1683588371041396700,1.134396728515625,-1.3887217185646294,-0.4463303935706615,0.7821314971938729
1683588371051403800,1.14440380859375,-0.8172942882508039,-0.1177227085828781,0.44496495043635365
1683588371061411600,1.15441162109375,-0.23657763606607912,-0.052989831909537315,0.22584815225899219
1683588371071419000,1.1644189453125,0.1913473322421312,-0.10131517913937568,0.10438245775550603
1683588371081425700,1.17442578125,0.452761887922883,0.026146833169460294,0.1834472266420722
1683588371091433700,1.184433837890625,0.6595937895447015,0.10236205784380435,0.11362374883145093
1683588371101440800,1.194440673828125,0.5871557453215122,0.11600538327097892,0.14531331081986426
1683588371111447600,1.204447509765625,0.33146716607213017,0.0010533084452152251,0.2538040806770325
1683588371121455600,1.21445556640625,0.2856809819310903,0.005934066224098205,0.22347908504009245
1683588371131462700,1.224462646484375,0.4539595732748508,0.042945992279052735,0.06803717891573906
1683588371141469700,1.2344697265625,0.5797095209687948,0.004310264414548874,0.13703969573229552
1683588371151477500,1.2444775390625,0.724297440123558,0.10080196892023086,0.16300474259406328
1683588371161484800,1.25448486328125,0.8059703456819057,0.22070377510786054,0.1467939047664404
1683588371171491600,1.26449169921875,0.7757908959954977,0.2797165205687284,0.2014236128374934
1683588371181499600,1.274499755859375,0.587592383173108,0.35393268038034437,0.11234189232736826
1683588371191506700,1.284506591796875,0.4522779037982225,0.34758418813645836,0.01549713660031557
1683588371201513700,1.294513671875,0.22513678911924362,0.2518722358316183,-0.0868710587233305
1683588371211521500,1.304521484375,0.08637246155142783,0.06542202798128127,-0.1262502984315157
1683588371221528800,1.31452880859375,0.016674655947089195,-0.05505962392091751,-0.01235270109474659
1683588371231535600,1.32453564453125,0.07871347123086452,-0.13025368885397912,0.03181318836808204
1683588371241543700,1.334543701171875,0.2524731243342161,-0.033141806623339654,0.027718320269882676
1683588371251550700,1.34455078125,0.3141121266454458,0.062491819748282426,0.15345277813374994
1683588371261557500,1.3545576171875,0.15106149908304214,0.14825930114388464,0.309212371905148
1683588371271565600,1.364565673828125,-0.24078210201859473,0.29038930575251576,0.41244186023324725
1683588371281572600,1.374572509765625,-0.3614247897014022,0.23302198941111563,0.5131859614863992
1683588371291579600,1.38457958984375,-0.2599462366938591,-0.06850362738370895,0.3087152360379696
1683588371301587500,1.39458740234375,-0.5271078115940093,-0.217674198153615,-0.11100713659226893
1683588371311594800,1.4045947265625,-0.7748346181839704,-0.2831692913711071,-0.1897559713974595
1683588371321601500,1.4146015625,-0.5797384548023343,-0.1932563807338476,-0.17684037572294473
1683588371331608800,1.42460888671875,-0.1787047082901001,-0.16187573856413365,-0.18430442799329758
1683588371341616600,1.43461669921875,0.15443652847409248,-0.05297112720906734,-0.235512929444015
1683588371351623700,1.444623779296875,0.37645898496508595,-0.001205284136533737,-0.23345307430475948
1683588371361630700,1.454630615234375,0.3988648780405521,0.04522445860505104,-0.25375205822885033
1683588371371638800,1.464638671875,0.2512874216809869,0.03474631921052933,-0.2156461994573474
1683588371381645600,1.4746455078125,-0.060766603390872476,0.006519172635674476,-0.18706483261734247
1683588371391652600,1.484652587890625,-0.3558320842608809,-0.000661094257235527,-0.24735651197284458
1683588371401660700,1.49466064453125,-0.5188029245853424,-0.06762333741784095,-0.18869214155822991
1683588371411667700,1.504667724609375,-0.4716846150577068,-0.052477790734171866,-0.1045145597025752
1683588371421675800,1.51467578125,-0.4251338762849569,0.0854372265279293,-0.05915244619250297
1683588371431683800,1.524683837890625,-0.39457624093592164,0.11290332560241222,0.0700742377012968
1683588371441690600,1.534690673828125,-0.45462183657586575,0.13390870423018933,0.09685264677256346
1683588371451698000,1.544697998046875,-0.44755584371238943,0.14437982936203478,0.12131781046539544
1683588371461705700,1.554705810546875,-0.3897220789030194,0.14021627994179725,0.17172610144913195
1683588371471712800,1.564712646484375,-0.24525807838886976,0.10369944392740726,0.1711377801671624
1683588371481719800,1.5747197265625,-0.13651099568307398,0.08977028729617595,0.1313122579962015
1683588371491728000,1.584727783203125,-0.08942132772803306,0.1506318754941225,0.10298369687348603
1683588371501734700,1.594734619140625,-0.054776130804419516,0.1924684452265501,0.1066194230273366
1683588371511742000,1.604741943359375,-0.048315994879603384,0.12591361382305621,0.062328153619170185
1683588371521749800,1.614749755859375,-0.058416533133387565,0.03520692245960235,-0.013036007183790206
1683588371531756800,1.6247568359375,-0.06024141047298908,0.0024918168157339097,-0.04187514817714691
1683588371541763800,1.634763916015625,0.0014738719448447227,-0.008157587492465972,-0.09385814113169907
1683588371551772000,1.64477197265625,0.012658990564942359,0.015485153901576995,-0.08985738105773926
1683588371561778700,1.65477880859375,0.04066927951872348,0.05432137277424335,-0.1059787870362401
1683588371571785700,1.66478564453125,0.09160451698601245,0.08347089489102363,-0.12676117056310177
1683588371581793800,1.674793701171875,0.12512684735953808,0.07269406481087208,-0.04706950194984674
1683588371591800600,1.684800537109375,0.1455079566091299,0.014726444488763809,0.04425473679006099
1683588371601808000,1.694807861328125,0.22359978881031273,0.04384966312050819,-0.0006327449455857276
1683588371611815700,1.704815673828125,0.2810723190918565,0.01917231798171997,-0.020331132628023624
1683588371621822700,1.71482275390625,0.23685002326667307,0.01589490374624729,-0.10171586889475584
1683588371631829800,1.724829833984375,0.10873510000705719,0.025939912420511243,-0.12213555658906698
1683588371641837800,1.734837890625,0.014054828837513923,-0.007842530193924904,-0.037222353935241696
1683588371651844900,1.744844970703125,-0.0868318957567215,0.03619710254073143,-0.03153787855803966
1683588371661851600,1.7548515625,-0.03729892630279064,-0.32015725202858447,0.422313850428164
1683588371671858700,1.764858642578125,0.11983692425787448,-0.3546504732608795,0.32750907609611746
1683588371681866800,1.77486669921875,-0.05928337909579277,0.3841290812015533,-0.4517708310589194
1683588371691873800,1.784873779296875,-0.019925766697525975,0.1134703118354082,-0.1958735774949193
1683588371701880600,1.794880615234375,0.02697276259958744,-0.15397709426879883,-0.025334347742795943
1683588371711889000,1.804888916015625,0.009644611179828642,-0.08479775958061218,-0.07172609656155109
1683588371721895700,1.814895751953125,-0.1529866219267249,0.07734101383388042,-0.24204846869260072
1683588371731902700,1.82490283203125,-0.30273265449702735,0.02042670195698738,-0.17266835073530673
1683588371741910800,1.834910888671875,-0.42520840282589195,-0.05966857902109623,-0.12372428708523511
1683588371751917800,1.844917724609375,-0.40987639365941286,0.012632102558016776,-0.15634060852974652
1683588371761924900,1.8549248046875,-0.3253413766682148,0.04986263979971409,-0.13790683395564554
1683588371771933000,1.864932861328125,-0.23012977510094643,0.08238894487321376,-0.04382131380885839
1683588371781939700,1.874939697265625,-0.17715718658715485,-0.04563362392783165,0.13378390880674124
1683588371791946800,1.88494677734375,-0.14104863911271096,-0.0351350262671709,0.007721241901814937
1683588371801954800,1.894954833984375,-0.10409838011711835,0.07445055308938026,-0.0434177014440298
1683588371811961600,1.904961669921875,-0.05333353078067302,0.11541209355294704,-0.17918986145853996
1683588371821969000,1.914968994140625,0.07636895393133163,0.2721411168783903,-0.3640253275886178
1683588371831976700,1.924976806640625,0.08793956473767757,0.030644729110598564,-0.09635989481955766
1683588371841983700,1.934983642578125,-0.030745266875624656,-0.11192483595907687,0.036196518018841745
1683588371851990800,1.94499072265625,-0.05835048215985298,0.008036006939411163,-0.0011649521261453627
1683588371861998800,1.954998779296875,-0.045379356905817986,-0.010379939717054367,-0.006821954974532127
1683588371872005600,1.965005615234375,-0.0593470919817686,-0.059169397327303884,0.008837094189226628
1683588371882013000,1.975012939453125,-0.036387656676769256,-0.023806992045044897,-0.017465514063835143
1683588371892020700,1.985020751953125,0.06895546280443668,-0.07390636321008205,0.01111526825428009
1683588371902027800,1.99502783203125,0.10049392588436602,-0.04452420138120651,0.03377016765475273
1683588371912034800,2.005034912109375,0.08051964386999606,0.025215689799189565,0.07504618089497089
1683588371922041600,2.01504150390625,0.03216156341433525,0.05716507176756858,0.08768880484700202
1683588371932049700,2.025049560546875,-0.005767477485537529,0.021875147199630737,0.11052870542556047
1683588371942056700,2.035056640625,0.026294132685661314,0.0648942047148943,0.11124679056704044
1683588371952063700,2.045063720703125,0.03994271880984306,0.11224456943273543,0.07366290984302759
1683588371962071600,2.055071533203125,0.06928688671588898,0.09049100278615951,0.05946311957687139
1683588371972078800,2.065078857421875,0.10050094014704226,0.05071370367109775,0.017680618119239808
1683588371982085600,2.075085693359375,0.12599836949706078,0.011589900028705595,-0.041617374023795124
1683588371992093700,2.08509375,0.08821429002583027,0.05070376679897308,-0.090016371011734
1683588372002100700,2.095100830078125,0.07718903814256191,0.035764556342363356,-0.07584697588384151
1683588372012107800,2.105107666015625,0.09912088396549225,0.001101239240169525,-0.07361994748413563
1683588372022115600,2.115115478515625,0.07605448115468025,0.048045361244678494,-0.10614186864346266
1683588372032123000,2.125122802734375,0.08944237051606178,0.06429214716851711,-0.036538755585253234
1683588372042129700,2.135129638671875,0.09157295280396938,0.09111351859867572,-0.0020277064353227616
1683588372052137700,2.1451376953125,0.07797112843096256,0.17475918553471564,-0.012761574156582354
1683588372062144800,2.155144775390625,0.04174655336141586,0.17833938210904599,-0.02194996600151062
1683588372072151600,2.165151611328125,-0.029891280394792556,0.11979191607236861,-0.03556903377026319
1683588372082159900,2.175159912109375,-0.0337321737319231,0.06229132874011993,-0.022968495394289492
1683588372092166700,2.185166748046875,-0.03948211556077003,0.04984744223058223,-0.02754033335447311
1683588372102173700,2.195173583984375,-0.09581482815742492,0.05898702649772167,0.004095452620089054
1683588372112181800,2.205181640625,-0.13450550107955933,0.04533434872031212,0.042645255766808984
1683588372122188800,2.215188720703125,-0.17938509176969528,0.03531622805297375,-0.0336667072802782
1683588372132195600,2.225195556640625,-0.22687866435050963,0.05104103592932224,-0.0745534289419651
1683588372142204000,2.235203857421875,-0.2328185757935047,-0.010772153905034065,-0.0547287845313549
1683588372152210700,2.245210693359375,-0.06392156029045581,0.00044131402671337126,-0.01343845050483942
1683588372162217700,2.2552177734375,-0.1183241816073656,0.02310322768986225,0.05893471178859472
1683588372172225800,2.265225830078125,-0.2358119123905897,0.025101123508810996,0.10929507197737694
1683588372182232800,2.27523291015625,-0.1849602615535259,0.002303016245365143,0.07232172436714172
1683588372192239900,2.285239990234375,-0.14336509936153888,-0.035143209573626516,-0.027458792550861835
1683588372202246700,2.29524658203125,-0.05678454801738262,0.0011988543957471847,-0.01671528021842241
1683588372212254700,2.305254638671875,0.05462883128821849,0.0540098226070404,0.023210487456619737
1683588372222261800,2.31526171875,-0.0028647417813539504,0.10967618024945258,0.02456774728447199
1683588372232268800,2.325268798828125,-0.23447452630698679,0.10520283422768116,0.1244762744963169
1683588372242276600,2.335276611328125,-0.21833178527951239,0.1372907478839159,0.16576514721810817
1683588372252284000,2.345283935546875,-0.024848025530576703,0.17668167802989482,0.18368191218078136
1683588372262290700,2.355290771484375,0.09247662364542483,0.17286065843701362,0.16105214722156524
1683588372272298800,2.365298828125,-0.01996434514224529,0.14313596678078175,0.18868892668783663
1683588372282305800,2.375305908203125,-0.06868541369140148,0.13359481597542763,0.19097090014517307
1683588372292312800,2.385312744140625,0.0596960515499115,0.10827040510475634,0.1839651130363345
1683588372302320600,2.395320556640625,0.21603402973115443,0.02579845812320709,0.18194909703880546
1683588372312328000,2.405327880859375,0.24564941579401492,0.045050855603814124,0.1618058881983161
1683588372322334700,2.415334716796875,0.19997253724634645,0.09970540585517883,0.07630611782819033
1683588372332342800,2.4253427734375,0.1336041683256626,0.09826280583143233,0.03701543318629265
1683588372342349800,2.435349853515625,0.0917857187718153,0.055503860557079315,0.023387889850139617
1683588372352356600,2.445356689453125,0.051181905704736706,0.024296821388602254,-0.017250994530320165
1683588372362364700,2.45536474609375,-0.016246785923838613,0.021156769797205925,-0.08231266476660966
1683588372372371700,2.465371826171875,0.04141571397185325,0.032795185142755506,-0.09809797065854071
1683588372382378800,2.475378662109375,0.0434744000673294,0.07306991238594054,-0.13070610879659653
1683588372392386600,2.485386474609375,-0.04155541470348835,0.0768535225778818,-0.10060586182624101
1683588372402393900,2.495393798828125,-0.057906245523691176,0.07030804645717144,-0.0356318698734045
1683588372412400600,2.505400634765625,0.02799742947220802,0.08499766606688498,0.0496548422679305
1683588372422407200,2.5154072265625,0.12065876203477383,0.1148474454075098,-0.006582008738815784
1683588372432415000,2.5254150390625,0.1143161150097847,0.10742927810549735,-0.047667175582051274
1683588372442422300,2.53542236328125,0.0699871439397335,0.013385551273822783,-0.04209229805916548
1683588372452429000,2.545428955078125,0.09564823941886424,-0.024943887120485304,-0.07604103715121746
1683588372462437000,2.55543701171875,-0.009070610684156417,0.006432078874111175,-0.08518646663725375
1683588372472444200,2.565444091796875,-0.11348317131698131,-0.013807576078176497,-0.08163958781063556
1683588372482451000,2.575450927734375,-0.19907471162378787,-0.010053776502609251,-0.12867986366599798
1683588372492459000,2.585458984375,-0.19388240367770193,-0.022659575575590132,-0.1618774921298027
1683588372502466000,2.595466064453125,-0.14909107579290867,-0.0785141492664814,-0.17203998970389364
1683588372512473000,2.60547314453125,-0.1772667844414711,-0.0024736966371536255,-0.15249942293167112
1683588372522481000,2.61548095703125,-0.2100964563757181,0.03875263224244117,-0.1472153450489044
1683588372532488200,2.62548828125,-0.18865443989634512,-0.024991817915439606,-0.15363894835561512
1683588372542495000,2.635494873046875,-0.18764321702718734,0.013590133935213088,-0.19247341366261242
1683588372552503000,2.6455029296875,-0.21521686812937257,0.029104513931274414,-0.1862596537142992
1683588372562510000,2.655510009765625,-0.16338848121464253,-0.009532382977008818,-0.18703648330569267
1683588372572517000,2.66551708984375,-0.12698971862196923,0.010921206986904144,-0.24966917282938955
1683588372582525000,2.67552490234375,-0.1360059687703848,0.016595160970091817,-0.24229367562532422
1683588372592532200,2.6855322265625,-0.1855962213695049,0.04522562764883041,-0.1349354169294238
1683588372602539000,2.6955390625,-0.25742694734930993,0.06694236941635608,-0.023597440947592255
1683588372612547000,2.705547119140625,-0.25538988856375217,0.07943477124273776,0.10420680892765521
1683588372622554000,2.71555419921875,-0.24964696099758146,0.16653671611249446,0.26431729138493537
1683588372632561000,2.725560791015625,-0.2574544198781252,0.21622107673585414,0.37965281257033345
1683588372642568200,2.735568115234375,-0.1054495024651289,0.16616203758120535,0.32556583307385445
1683588372652576000,2.745575927734375,-0.04427811766564846,0.10968144094645976,0.2305488772958517
1683588372662583000,2.7555830078125,-0.03593231412470341,0.06872340761423111,0.18882278220057486
1683588372672590000,2.765590087890625,-0.010085925206542015,0.06086158819794654,0.11893033080697059
1683588372682598100,2.77559814453125,0.06037058981060981,0.09325053062736988,0.07026245374977588
1683588372692605000,2.78560498046875,0.1391682321935892,0.06983925990164279,0.11304536442160605
1683588372702612200,2.7956123046875,0.15574761107265947,0.05938333233892917,0.12892185572832823
1683588372712620000,2.8056201171875,0.11515548844337463,0.13012450951635837,0.1869511431097984
1683588372722627000,2.815626953125,0.13581892176568508,0.14186813880205154,0.23995178867429492
1683588372732634000,2.825634033203125,0.182917942070961,0.12910276525318623,0.1929033295124769
1683588372742642200,2.83564208984375,0.22770284021496773,0.13702654398977757,0.1964656981691718
1683588372752649000,2.84564892578125,0.20177754084169863,0.1636807421594858,0.2756003174215555
1683588372762656000,2.855656005859375,0.19088146829605102,0.13721476003825664,0.37287177412807937
1683588372772664000,2.8656640625,0.27020401133596894,0.15884206995666025,0.37780776922553777
1683588372782670800,2.8756708984375,0.34552725560665126,0.15607552785277365,0.3110369569838047
1683588372792678100,2.88567822265625,0.35002047537267206,0.06938859352469444,0.2691659004598856
1683588372802686000,2.89568603515625,0.43543490554690356,0.062305941787362096,0.2546057524487376
1683588372812693000,2.90569287109375,0.5141682505220174,0.13788228403627872,0.25025311019718643
1683588372822700000,2.915699951171875,0.4459107068538666,0.14675766440927981,0.3416811015725136
1683588372832707000,2.92570703125,0.49632513531744477,0.10481003551781178,0.6447001717954873
1683588372842715100,2.935715087890625,0.5362140781134367,0.3291097892910242,0.672948361158371
1683588372852722200,2.94572216796875,0.632059885931015,0.4640203640401363,0.7889210112035274
1683588372862729000,2.95572900390625,0.7143249121636152,0.3794716107845306,0.7799906857728958
1683588372872737300,2.9657373046875,0.7003080772489308,0.27068039667606353,0.5886129583925008
1683588372882744000,2.975744140625,0.6515387856438756,0.20367665246129035,0.3949953431308269
1683588372892751000,2.985751220703125,0.6445756686329841,0.1729962675154209,0.2974620206177234
1683588372902759200,2.99575927734375,0.7829723319321871,0.08783318175375461,0.1844768619507551
1683588372912766000,3.005765869140625,0.977384312441945,0.05740589478611946,0.1907335842579603
1683588372922773200,3.015773193359375,1.1450576313689351,0.06358838281333447,0.47942748426944015
1683588372932781000,3.025781005859375,1.3267176823332905,0.18110709325671195,0.6805576671183109
1683588372942788000,3.0357880859375,1.3054308564156294,0.35408290250599384,0.7719488336145878
1683588372952795100,3.045795166015625,1.0296575205147265,0.4864730188667774,0.9148200119793415
1683588372962803200,3.05580322265625,0.5816784829542041,0.5640384891062975,1.1427592912986875
1683588372972810000,3.06581005859375,0.1995142720848322,0.5725514659076929,1.1984598434716462
1683588372982817000,3.075817138671875,0.16259820761978624,0.5173977339625359,1.144139932002127
1683588372992825000,3.0858251953125,0.4233914165318012,0.4286468528419733,0.9924164618790149
1683588373002832000,3.095831787109375,0.7558046312823892,0.38461657245755193,0.8702306364074349
1683588373012839200,3.105839111328125,1.0838111355066298,0.4249813160717487,0.9424906937152147
1683588373022846000,3.115845947265625,1.196516892710328,0.5395125351369381,1.244345104072988
1683588373032854000,3.12585400390625,0.886448488497734,0.8467278880059719,1.087386363644898
1683588373042861000,3.135861083984375,0.4461228882998228,1.0435282249569893,1.2338684259831905
1683588373052868000,3.1458681640625,0.22705372865647075,1.1190963838994503,1.2207429869502782
1683588373062876000,3.1558759765625,0.3670657181978226,1.1268827999919653,0.9117030490025877
1683588373072883200,3.16588330078125,0.684857994660735,1.1440788494646548,0.5194944139808416
1683588373082890000,3.175889892578125,0.7712965071856975,1.148356965175271,0.11656681654602288
1683588373092898000,3.18589794921875,0.5099544322192668,0.9744652101248502,0.3250269038915634
1683588373102905000,3.195905029296875,0.5537272307112813,0.9391127417147159,0.2100909034177661
1683588373112912000,3.205911865234375,0.7982379978641867,0.8807949927806854,-0.18863953458815813
1683588373122920000,3.215919921875,0.7533554845646023,0.7778226940840482,-0.37615503358244895
1683588373132927000,3.225927001953125,0.749003134573996,0.5712918212354183,-0.39853023925870656
1683588373142934000,3.23593408203125,0.8557713184222578,0.39001872376203534,-0.2658303262963891
1683588373152941800,3.24594189453125,1.016191305220127,0.34541619644761085,-0.3557075810983777
1683588373162949000,3.25594921875,1.0743281446292996,0.23874095157980918,-0.40739539049863815
1683588373172956000,3.265955810546875,0.9772460730150342,0.13820727820694445,-0.04327449358105659
1683588373182963200,3.275963134765625,0.7778937134936451,0.15996610555052757,0.4133604363828897
1683588373192971000,3.285970947265625,1.3977616418495773,0.27281390157341956,1.4929662291541694
1683588373202978000,3.29597802734375,0.43552726000547404,0.8014128285080194,2.0487714351832866
1683588373212985000,3.305985107421875,-0.6396687534995377,0.9664917470276355,1.69184921759814
1683588373222993200,3.3159931640625,-1.2612509384274482,0.8125070539742708,1.7632821764320135
1683588373233000000,3.326,-1.551942149735987,1.0388011964350938,2.045831582339108
1683588373243007000,3.336007080078125,-1.6756640987336635,1.4058312587976456,1.5976672513395547
1683588373253015000,3.34601513671875,-1.8994810374259947,1.9543992070496081,0.7238792147114872
1683588373263021800,3.356021728515625,-1.7561983556509018,2.8481244085520503,0.29779958200901746
1683588373273029000,3.366029052734375,-1.6428338422775268,4.7514387405306096,1.517700857438147
1683588373283037000,3.376036865234375,-0.22942716152323409,4.441062877804041,1.58904087729156
1683588373293044000,3.3860439453125,-2.0044763663828373,1.8198457751750945,-0.22167262014001607
1683588373303051000,3.396051025390625,0.8096540026307105,-0.7219236967295408,-0.06478051520735024
1683588373313059000,3.40605908203125,2.050868699723482,0.37123978901207444,0.21150866126120088
1683588373323066000,3.416066162109375,1.4511410575985908,2.494399233442545,1.5013117404341696
1683588373333073200,3.4260732421875,1.885815500167012,3.2513796305060385,1.690335305903852
1683588373343080000,3.436079833984375,1.3802531654268502,2.688791924729943,1.7271379731222987
1683588373353088300,3.446088134765625,0.8038426860034465,2.366802781099081,1.4449071316450834
1683588373363095000,3.456094970703125,0.5396329831788316,2.843141943964362,0.9987759139083325
1683588373373101800,3.466101806640625,0.01893434450738132,3.5627018341720103,1.1673308379754423
1683588373383110100,3.476110107421875,-1.1691074922591447,3.681699384996295,0.46387686391621824
1683588373393117000,3.486116943359375,-1.933486767402291,3.0507986059725285,-1.041936717981845
1683588373403124000,3.4961240234375,-1.299627723094821,3.0788626709401608,-3.255799200513959
1683588373413132000,3.506132080078125,-1.7560298672161996,3.3719466226041317,-1.9937553581431506
1683588373423139000,3.51613916015625,-2.508025023213029,1.7876356964439153,2.218046197957545
1683588373433146000,3.52614599609375,-0.7497526377670466,1.785316313585639,1.5157251734510062
1683588373443154200,3.536154296875,0.27035715607106686,1.6643728893905878,0.2399488660648465
1683588373453161200,3.5461611328125,0.5883489006288349,2.0992028147816657,1.0421868933506309
1683588373463168300,3.556168212890625,1.6079608279474078,1.7970125965982675,0.8072088014356792
1683588373473175000,3.566175048828125,1.4089830008268356,2.5442566125452517,-0.4295382487237453
1683588373483183000,3.57618310546875,0.9268237535059451,3.0214544380664825,-0.6700869803778827
1683588373493190100,3.586190185546875,1.3513853828608988,2.7484137419998644,-0.4520744901806116
1683588373503197200,3.596197265625,1.1827212993308902,2.146782896602154,-0.035334055970609186
1683588373513205000,3.606205078125,0.33132658855766056,1.362519355815649,0.13785568829029798
1683588373523212300,3.61621240234375,-0.6001964286804199,0.7003834805727005,0.7335669343806803
1683588373533219000,3.626218994140625,-2.608082311245799,0.13046002508103846,2.768168243783712
1683588373543227100,3.63622705078125,-4.106588638870418,-0.4511515301167965,4.502137231969833
1683588373553234200,3.646234130859375,-5.472196900612116,-0.4449199422508478,4.994259654900431
1683588373563241200,3.6562412109375,-5.878913661196828,0.20484452719688415,4.795091712035238
1683588373573249000,3.6662490234375,-5.526377403610945,0.9033300651937722,4.840143444421887
1683588373583256300,3.67625634765625,-5.069262581175566,1.1186264283001421,4.8166380656719205
1683588373593263000,3.68626318359375,-3.85514485758394,0.8351485093712806,4.19783046002388
1683588373603271200,3.696271240234375,-2.5439438933342693,0.9237830706357956,3.2686665731325744
1683588373613278200,3.7062783203125,-1.7022496155813336,0.7443734289467334,2.365685175246
1683588373623285000,3.716284912109375,-0.9170920485645532,0.616097177645564,1.420091839340329
1683588373633292300,3.726292236328125,-0.10325783763974905,0.5297615409731865,0.33266923533827064
1683588373643300000,3.736300048828125,0.27408582120537756,0.7584300113499164,-0.5170046429917216
1683588373653307100,3.74630712890625,0.3102446375623345,0.9068623309731483,-0.9393382940988987
1683588373663314200,3.756314208984375,0.2474073653772473,0.9667787472754716,-1.0181416355703026
1683588373673322200,3.766322265625,0.7578364293709396,1.4618033213883637,-0.7839603200562297
1683588373683329000,3.7763291015625,1.7905366785824297,1.6331904001414774,-0.6341875456094741
1683588373693336300,3.78633642578125,2.699445420691371,1.8571143063396214,-0.8737586644031107
1683588373703344000,3.79634423828125,3.2494720433190465,2.0865993537962435,-1.165059678173065
1683588373713351200,3.80635107421875,3.7537989910453557,2.147910439327359,-1.3786695494972168
1683588373723358200,3.816358154296875,4.165151886998117,2.1991876221001148,-1.570211235267669
1683588373733366300,3.8263662109375,4.681919214102626,2.391797521623969,-2.0961723610445855
1683588373743373000,3.836373046875,4.623688558930159,2.671438054347038,-2.919146740758419
1683588373753380000,3.846380126953125,4.006680111658573,2.4813842690467833,-3.447719656468928
1683588373763387100,3.85638720703125,3.1299867089778184,1.841150429010391,-4.161913927990198
1683588373773395000,3.86639501953125,2.3547753664359448,1.84016434058249,-4.962984811192751
1683588373783402200,3.87640234375,1.9501950333580373,2.0075866073578594,-5.921479129725694
1683588373793409000,3.886408935546875,1.6679788049280642,2.0238591122448444,-6.938223392653465
1683588373803417000,3.8964169921875,1.314070089945197,1.8230033624231814,-7.472750540593266
1683588373813424000,3.906424072265625,0.9353975205838679,1.5586369711995125,-7.127935817170143
1683588373823431200,3.91643115234375,0.5926265779480338,1.4688473946809768,-6.081573830091953
1683588373833439200,3.926439208984375,0.7776508446484803,1.389561676520109,-5.244901472154259
1683588373843446300,3.9364462890625,1.2955813703134655,0.891495250493288,-4.839890638704597
1683588373853453000,3.946453125,2.030275993549824,0.7333259652316569,-4.45858596727401
1683588373863461400,3.95646142578125,2.35498988596946,0.6612777971088886,-4.815559330524504
1683588373873468200,3.96646826171875,2.348551669615507,0.21592940031290053,-5.927251283386349
1683588373883475000,3.976474853515625,2.0511118608295917,-0.2724959216654301,-6.445428185027837
1683588373893482200,3.986482177734375,1.6365347421333192,-0.8539999248355626,-6.060858374321461
1683588373903490000,3.996489990234375,1.495807590059936,-1.451017723479867,-5.461154113072157
1683588373913497000,4.0064970703125,1.9616221440404653,-1.876518679511547,-5.171910470223427
1683588373923504000,4.016504150390625,3.033165626387298,-2.4903099183022976,-5.557448249179124
1683588373933512200,4.02651220703125,4.171302518582344,-3.0756846254259345,-6.1348266968518494
1683588373943519200,4.036519287109375,5.132144277024269,-3.1711575082778927,-5.8517760634243485
1683588373953526000,4.046526123046875,5.489165571069717,-3.8261370820254084,-6.034946518951654
1683588373963534000,4.0565341796875,3.9800428646236656,-4.838606736373901,-5.890543893235922
1683588373973541000,4.066541015625,1.618925727945566,-5.51241668279767,-5.61072098968327
1683588373983548200,4.076548095703125,0.034306174227595326,-6.010029519838095,-5.562887809884548
1683588373993556000,4.086555908203125,-0.5473205785393714,-6.0104766790837045,-5.238610847577452
1683588374003563300,4.096563232421875,-0.4779676408499479,-5.0056297746986145,-4.511224501527845
1683588374013570000,4.106570068359375,-0.2648135504692793,-4.277992376497387,-3.6195635390788317
1683588374023578000,4.116578125,-0.6872896057218313,-4.015207116985321,-2.5204016897052526
1683588374033585200,4.126585205078125,-1.457897546121478,-2.9296067599743605,-1.165263091790676
1683588374043592200,4.13659228515625,-2.126653131765127,-2.3359505467176436,0.12279548180252313
1683588374053599200,4.14659912109375,-2.121643779170513,-1.7896984741926192,0.765435798458755
1683588374063607300,4.156607177734375,-0.7020446917831897,-1.4327642739087343,0.5487371673390269
1683588374073614000,4.166614013671875,0.9666016371428966,-1.0496733035832644,-0.06678367172330618
1683588374083621000,4.17662109375,1.8390391359448433,-0.4996043031185865,-0.6986334220349788
1683588374093629200,4.186629150390625,1.8032143738478421,-0.33040099814534185,-0.6344830214247107
1683588374103636000,4.196635986328125,1.391074419170618,-0.538089808857441,0.16516688906401394
1683588374113643300,4.206643310546875,-0.09048106591403483,0.20572481716275215,1.8744462571516631
1683588374123651000,4.216651123046875,-1.1215525448799133,0.27060966952741144,3.042740387201309
1683588374133658000,4.226658203125,-1.9786732320845126,0.05781389106512069,4.047014460134506
1683588374143665200,4.2366650390625,-4.928041508105397,-0.028225977531075475,5.407588527101278
1683588374153673200,4.246673095703125,-11.319570345163344,0.5713549495995044,6.672499157080054
1683588374163680000,4.256679931640625,-14.112002092587947,0.8192506830155849,5.844912022873759
1683588374173687300,4.266687255859375,-8.364453880879282,-1.261499360230565,2.6279823589801787
1683588374183695000,4.276695068359375,-3.090122900623083,-2.7780034090995787,1.211720307061076
1683588374193702100,4.2867021484375,-1.8598720806151627,-1.8409633820056914,0.7168048924110829
1683588374203709200,4.296709228515625,-2.246497070285678,-0.08488251525461674,0.578054739499092
1683588374213716000,4.306716064453125,-1.3423264626145361,0.17529110045433044,1.2367037955395876
1683588374223724000,4.31672412109375,-0.3865566006094217,-0.5193576358586549,1.6432601048655806
1683588374233731000,4.32673095703125,1.256010699686408,-1.6293828245520592,1.0634744499206543
1683588374243738000,4.336738037109375,1.7670581878393887,-1.1649661546707153,0.6311410175204276
1683588374253746000,4.346745849609375,0.26298925765156744,1.1498106711149214,0.34398294877409935
1683588374263753200,4.356753173828125,-1.3899357705295086,1.8918822528600692,-0.7720207298070192
1683588374273760000,4.366760009765625,-0.9956383465349674,1.1130547656476497,-2.273808417189866
1683588374283768000,4.37676806640625,0.3068704849541187,2.31898596791327,-3.268370805056393
1683588374293775000,4.386775146484375,3.3164334096968173,2.605875741112232,-2.597043030837178
1683588374303782100,4.3967822265625,4.797563362845779,3.848428993332386,-0.876347657983005
1683588374313790200,4.406790283203125,6.693606242516636,4.488962108576297,-0.5709605434544384
1683588374323797200,4.41679736328125,5.063922973713279,7.963916685712337,-0.7541565718144178
1683588374333804000,4.426803955078125,1.4814292283564805,7.468208220988512,-1.366508425451815
1683588374343811000,4.43681103515625,-0.6032710138201713,4.486653247112035,-0.3317050664812326
1683588374353819100,4.446819091796875,-3.0995489006161687,3.8740748912423846,1.6494813174679874
1683588374363826000,4.456825927734375,-5.123447175827622,3.581139408138394,3.37249081248343
1683588374373833200,4.466833251953125,-5.078712546566129,3.2557834184229373,4.548157809388638
1683588374383841000,4.476841064453125,-3.525965802448988,3.652084583455324,4.76147147424519
1683588374393848000,4.48684814453125,-2.253995901608467,3.6297131771713493,3.5103318877264855
1683588374403855000,4.496855224609375,-1.6836317166119812,3.8453953247249126,2.320900569362938
1683588374413863200,4.50686328125,-0.6808160257935524,3.3337194755405184,1.3653425965428352
1683588374423869700,4.51686962890625,0.15439853455126284,1.4386930794358253,0.5900277936264873
1683588374433876700,4.526876708984375,0.6178513278365135,1.065630751171708,1.2891504604831336
1683588374443883800,4.5368837890625,0.4270855948746204,0.28422084625065325,1.6094862839490174
1683588374453891800,4.546891845703125,-0.09098726187050342,-0.13449907133877276,1.293232176838815
1683588374463898600,4.556898681640625,-0.610433160534501,-0.25042262154519557,0.9655357614770531
1683588374473905700,4.56690576171875,-0.6258160231053829,-0.36918870170116425,0.48327100795507427
1683588374483913700,4.576913818359375,-0.1106599305897951,-0.058462125840783113,0.3761459734931588
1683588374493920500,4.58692041015625,0.2679506794512272,0.10882862350940704,0.9959592490524053
1683588374503927800,4.596927734375,0.061056818509101864,0.1922024877667427,1.9210168696686625
1683588374513935600,4.606935546875,-0.025454174730181692,0.22557576505839824,2.583182555527985
1683588374523942700,4.616942626953125,-0.42100948983132835,-0.14418927522599695,2.4272134106591343
1683588374533949700,4.62694970703125,-0.6562059006720781,-0.7410287946939468,1.6203423167452216
1683588374543956700,4.636956787109375,-0.344179348129034,-1.3414549404770135,0.5743140916660427
1683588374553964500,4.646964599609375,0.7066074696540832,-1.268062372007966,-1.0330544694766401
1683588374563971800,4.656971923828125,1.7980483693867921,-0.8609089735716581,-2.292989941391349
1683588374573978600,4.666978515625,2.0183926635324956,-1.099396827173233,-2.1954583724439143
1683588374583986700,4.676986572265625,1.7308891423493622,-1.6167629969537258,-1.578621190086007
1683588374593993700,4.68699365234375,1.3104735267579555,-1.3678595477998257,-0.9674366266623139
1683588374604000500,4.69700048828125,1.2314146030902862,-1.1320061343550682,-0.01495645385235548
1683588374614008600,4.707008544921875,1.6675883443057535,-1.1885323236972092,0.7808864655688404
1683588374624015600,4.717015625,1.753001020914316,-0.8675380363225936,0.8578554312199353
1683588374634022700,4.727022705078125,1.0225801294744015,-0.17907587969005107,-0.3008811814114451
1683588374644029700,4.73702978515625,0.292156899946928,0.8393611586302518,-2.0848542636945844
1683588374654037800,4.747037841796875,0.17187515453100202,1.6995523393213747,-2.7394892617881297
1683588374664044500,4.75704443359375,0.27503742284178734,2.6968706017673014,-2.792918361897766
1683588374674051800,4.7670517578125,-1.2557453267484902,4.0116958939939735,-2.9836192129299044
1683588374684059600,4.7770595703125,-2.583072957673669,4.5202281844556325,-1.683294447481632
1683588374694066700,4.787066650390625,-1.846745472538471,3.969759955540299,0.217948338919878
1683588374704073700,4.79707373046875,-0.3068108637213707,2.8271020787894723,1.4382324761867522
1683588374714081800,4.807081787109375,0.5193582203805446,1.6525906816601752,1.0229055620364844
1683588374724088600,4.817088623046875,-0.36660394590497014,1.5358224973231553,-0.8030076964840293
1683588374734095600,4.827095703125,-0.011876315754652023,1.77524324786067,-1.2310394861675797
1683588374744102700,4.8371025390625,0.8398989187687635,0.3751064013123512,-0.10470175283774732
1683588374754110500,4.8471103515625,3.6594022129923105,-0.7753980972856283,-0.3136844027526676
1683588374764117800,4.85711767578125,2.9670664297968146,-0.01698152993917465,-3.425786933863163
1683588374774124500,4.86712451171875,1.873290365114808,-0.2439209845662117,-6.444151004698872
1683588374784132600,4.877132568359375,-1.0131091212958097,-0.9634171618878841,-9.479410680755972
1683588374794139600,4.8871396484375,-3.775657771632075,-1.4570593417316675,-12.413157024753094
1683588374804146700,4.897146728515625,-4.064527320471406,-2.8714462474286555,-9.110978934901953
1683588374814154800,4.90715478515625,-3.0883026994585987,-3.9710090788185592,-5.825214804235101
1683588374824161800,4.917161865234375,-2.1781559399873016,-4.805404723995924,-4.618531906819343
1683588374834168600,4.92716845703125,-2.080606835383177,-5.17024516735971,-3.5939404375225306
1683588374844175600,4.937175537109375,-1.4588269359260797,-3.558548806145787,-2.852427950964868
1683588374854183700,4.94718359375,-1.18452133449018,-0.712344552001357,-3.351979062591493
1683588374864190500,4.9571904296875,-1.8768097714126108,0.8384194938659667,-5.240230557733774
1683588374874197800,4.96719775390625,-2.987196779155731,0.44997079589962957,-5.854108305764198
1683588374884205600,4.97720556640625,-2.4873300257086752,-0.7947077779114246,-6.277774447584152
1683588374894212600,4.987212646484375,-1.7803928857088087,-1.4076590587466955,-6.017576866477728
1683588374904219600,4.9972197265625,-0.24084318455606699,-1.1030571032464505,-2.8972464591175315
1683588374914226700,5.007226806640625,1.9841735830664633,-0.15478139638900756,-0.3461909802123904
1683588374924234800,5.01723486328125,4.29763552686125,-1.3222750237107277,-0.3409172775931656
1683588374934241800,5.02724169921875,4.892471889813244,-2.902743887490034,3.3520512510448692
1683588374944248600,5.03724853515625,4.2038741241022946,-1.301964057087898,7.494696414941549
1683588374954257000,5.0472568359375,5.166230086499453,0.8030559195399284,9.489328848180174
1683588374964263700,5.057263671875,6.219931330424547,1.6253326723784207,9.972007735460997
1683588374974270500,5.0672705078125,4.284068773801624,1.774245468994975,7.972424401816725
1683588374984278800,5.07727880859375,0.3760781689539551,2.1707126382440327,6.665714026984572
1683588374994285600,5.08728564453125,-2.363401448222995,3.1243373049139973,6.096693073290586
1683588375004292600,5.097292724609375,-3.721984633633494,3.4137153877973554,4.853181205171347
1683588375014299600,5.107299560546875,-3.562261396928131,2.075289439752698,4.757869065839052
1683588375024307700,5.1173076171875,-4.805059856081009,0.8462456574469804,4.273949238586425
1683588375034314800,5.127314697265625,-5.809627359002828,-1.0116326190024614,2.4871803881049153
1683588375044321800,5.13732177734375,-5.811495490962266,-1.5886071620494127,0.8536471658751368
1683588375054329600,5.14732958984375,-4.221994010421634,-0.5482599052160978,0.618935908202827
1683588375064337000,5.1573369140625,-1.5018877867564557,1.4895353779226541,-0.16282708447221667
1683588375074343700,5.16734375,0.3507499586910009,1.856412295550108,-2.8735055180460214
1683588375084351700,5.177351806640625,0.5258399836152792,2.3639871391564604,-5.262563970094919
1683588375094358800,5.18735888671875,-3.3675860893070695,3.1436043154418467,-6.149840726110339
1683588375104365600,5.197365478515625,-6.439999730238318,6.105260410627722,-5.538047967660427
1683588375114372600,5.20737255859375,1.8025602938532828,6.819293646368384,-5.509256172940135
1683588375124380700,5.217380615234375,6.0552364427864545,4.705170325830578,-5.8045893648356195
1683588375134387700,5.2273876953125,6.406330100348591,0.5840799911379814,-6.2032771327435965
1683588375144394800,5.237394775390625,6.021026714670658,-1.1942641453474758,-6.004098376223444
1683588375154402800,5.24740283203125,4.344348470458388,-2.989779781386256,-2.2718562602087853
1683588375164409600,5.25740966796875,2.069453573206067,-5.085303615394234,-1.318253513109684
1683588375174417000,5.2674169921875,2.4914850995615123,-5.524351450741291,-2.242253733627498
1683588375184424700,5.2774248046875,4.73168716135621,-5.28496167986393,-3.7085561200007793
1683588375194431700,5.287431640625,7.772977934271097,-2.8625568385303017,-2.0462910165444015
1683588375204438800,5.297438720703125,3.789738319432735,1.5408049619108437,4.567921371261775
1683588375214445600,5.307445556640625,3.7104376959636807,3.5188983482807874,12.722269735676049
1683588375224453600,5.31745361328125,2.973414629779756,2.6343220833957193,11.424730509293079
1683588375234460700,5.327460693359375,2.101548501124978,2.5011194816082716,7.128807339307666
1683588375244467700,5.3374677734375,1.5735440329521893,3.299612038755417,6.908599823284149
1683588375254475500,5.3474755859375,1.302130353565514,3.666916826406121,6.890372677198052
1683588375264482800,5.35748291015625,4.033946888768673,5.203792632174491,7.7029224012702695
1683588375274489600,5.367489501953125,2.417654431936145,6.151862002804875,8.987382950371503
1683588375284497700,5.37749755859375,-2.6766125343754887,4.266602382954955,7.374433374226093
1683588375294504700,5.387504638671875,-4.3575148260235785,2.0721289298951624,5.664927211645245
1683588375304511700,5.39751171875,-5.879808564209938,0.19664426960647105,4.639788045337796
1683588375314518800,5.407518798828125,-6.396780766236781,-0.6492874995857477,3.3768639130011198
1683588375324526800,5.41752685546875,-6.010343408092856,-1.2514724717348813,1.726672693698108
1683588375334533600,5.42753369140625,-5.499346773344278,-1.480503345683217,-0.529230795097351
1683588375344540700,5.437540771484375,-4.15114878834784,-1.0615233158528805,-1.0312769384101033
1683588375354548700,5.447548828125,-1.4459545948714017,0.8795411933273076,0.0762964732170105
1683588375364555500,5.457555419921875,-0.1880798548787832,2.547961896803975,1.004488592466712
1683588375374562800,5.467562744140625,0.1677156967639923,3.162663820698857,0.2957968638844788
1683588375384569600,5.477569580078125,-0.4886965401351452,3.091792295140028,0.2085141556203365
1683588375394577700,5.48757763671875,-1.531807416462898,3.146138802355528,-0.47779827563241123
1683588375404584700,5.497584716796875,-1.6327765586435794,4.316429366919398,-1.6343369398280978
1683588375414591700,5.507591796875,-0.7040940255284309,4.027120257619023,-1.3080027527302502
1683588375424599800,5.517599853515625,0.44827568241953847,2.9506419492185114,-0.09032287967763841
1683588375434607000,5.527607177734375,1.1029261703431605,3.0248072556257246,2.8633254848152396
1683588375444614000,5.53761376953125,2.335653025075793,2.810482367900014,6.616154169523716
1683588375454622000,5.5476220703125,2.451921443197131,2.1928864761292934,6.433815488645434
1683588375464629000,5.55762890625,-0.7409826174646615,1.4062988763093947,3.1684108399182556
1683588375474635800,5.5676357421875,1.3885481155633925,1.185998421305418,2.213581181372702
1683588375484643000,5.57764306640625,0.28393793765604497,0.85393036673069,2.741664852261543
1683588375494651000,5.58765087890625,1.728083145017922,0.541015925437212,5.177427187818289
1683588375504658000,5.597657958984375,3.3774285611465573,-0.4725958846837282,5.063496272733807
1683588375514665000,5.6076650390625,4.465032951456308,-0.6291343538731337,4.282688133098185
1683588375524673000,5.617673095703125,5.6593374288141725,0.21692191848158834,3.598180559310317
1683588375534679800,5.6276796875,6.968244436907768,0.9755097507417202,1.2083902858555315
1683588375544687000,5.63768701171875,4.090532407082617,2.087411839222908,1.1942764203071594
1683588375554695000,5.64769482421875,4.242358168536424,3.4766052669525145,-1.163012097993493
1683588375564702000,5.657701904296875,4.234005642993748,4.234728404310346,-3.0848744785755873
1683588375574709000,5.667708984375,4.568198726898432,3.7523908778131005,-1.947683635058999
1683588375584715800,5.6777158203125,3.151054339186847,2.9522753956392407,-1.2978677276849746
1683588375594723800,5.687723876953125,2.416072131180763,3.1012919448912144,-0.5581032538384199
1683588375604731000,5.69773095703125,3.0092364692673086,3.626594752889871,-2.6064713689178225
1683588375614738000,5.707738037109375,2.306139638082683,4.15196156603545,-1.5590052199900148
1683588375624745700,5.717745849609375,1.8596297962918877,3.4421789734765884,2.465472414165735
1683588375634753000,5.7277529296875,2.1391724215984342,2.0014426977753637,4.606074576306343
1683588375644759800,5.737759765625,1.2041475337192415,0.8731655208155512,8.407907238158582
1683588375654767900,5.747767822265625,2.0779460917413233,-2.172357775102556,5.163796137350797
1683588375664775000,5.75777490234375,0.9706818921938538,-0.7669225298851728,3.5024674379616973
1683588375674782000,5.767781982421875,0.18538900835961103,2.998977817842364,3.481833230733871
1683588375684789000,5.7777890625,1.4726400649622082,3.101484252592921,0.6425713430732488
1683588375694797000,5.787797119140625,2.517705874750018,2.906832033586502,-2.674621945080161
1683588375704803800,5.797803955078125,2.350500173334777,3.4087226940765976,-6.285497150790691
1683588375714811000,5.807810791015625,0.1832291999772191,4.158024519336223,-8.259111345919965
1683588375724819000,5.81781884765625,-1.3689356525987386,4.183371434299648,-7.566027959227561
1683588375734825700,5.82782568359375,-1.9175164603322743,4.226911593079567,-8.226043773576617
1683588375744833000,5.8378330078125,-1.5409174823746083,4.212727292643487,-9.927317529863119
1683588375754839800,5.84783984375,-0.9945414912089705,3.3533523967713115,-10.719468609029054
1683588375764847900,5.857847900390625,-0.9899237682804465,1.850330345287919,-11.296928305244446
1683588375774855000,5.86785498046875,-2.022550367733836,1.1904393263623119,-9.117041595941782
1683588375784862000,5.877862060546875,-3.24642551523,0.9105398504421114,-6.4490709254443646
1683588375794870000,5.8878701171875,-3.2749592435359953,0.7755224543176591,-4.449395821863413
1683588375804877000,5.897876953125,-2.6950392946869135,1.5460954695343971,-3.853990719112754
1683588375814883800,5.9078837890625,-2.243262326148152,1.8336422453373669,-3.800777015319466
1683588375824892200,5.91789208984375,-2.290512153100967,1.7649115311995147,-3.6347593546450137
1683588375834899000,5.92789892578125,-2.3775740582212803,1.741197770395875,-3.0634856535881756
1683588375844905700,5.93790576171875,-2.2113578062348065,1.647842610350251,-3.1549083842664953
1683588375854913000,5.9479130859375,-2.1369377944141625,1.4139600585870444,-3.6928409567356106
1683588375864920800,5.9579208984375,-2.1523878770023583,0.8806845181435347,-4.22608566364944
1683588375874927900,5.967927978515625,-2.1878467283964156,0.33928689991235733,-4.449291776967049
1683588375884935000,5.977934814453125,-2.442202597737312,0.30074586459398267,-4.818964462792873
1683588375894943000,5.98794287109375,-1.8073685709178446,0.6122726509213448,-4.360699301278591
1683588375904950000,5.997949951171875,-0.926201237693429,1.2421331271119416,-3.6454829932332036
1683588375914957000,6.00795703125,-0.15826806946098804,2.0511498547524214,-3.530191311189532
1683588375924963800,6.0179638671875,0.6051707099616527,2.7610379535123704,-3.7278584941029544
1683588375934972200,6.02797216796875,1.4103484439611433,3.3977392355084417,-3.5637662485331294
1683588375944979000,6.03797900390625,1.080662608347833,2.669836464369297,-4.126128328859806
1683588375954986000,6.047986083984375,0.38195933594703674,1.7891650979682803,-4.012612424317002
1683588375964994000,6.057994140625,0.3261342806115746,2.366650805407762,-3.6958909919559955
1683588375975000800,6.068000732421875,1.4488452017463742,3.850349147740006,-2.1578987493783233
1683588375985008000,6.078008056640625,1.5258455854490398,3.5723563822239637,-1.415671684810519
1683588375995016000,6.088015869140625,1.4916194907203315,3.2108266708433626,-0.729784347102046
1683588376005023000,6.09802294921875,0.6130104636766016,2.856849566799402,0.2953285157203674
1683588376015030000,6.108030029296875,0.34308658445626494,3.1141508419424295,1.3305173668771981
1683588376025036800,6.118036865234375,1.9507478449352085,3.9593636492103337,3.2922979163497685
1683588376035044900,6.128044921875,5.800963575553894,4.381194392296671,6.505396623778343
1683588376045052000,6.138052001953125,7.664069231262802,3.885620367607474,8.124628056672215
1683588376055059000,6.148058837890625,6.813571761590242,2.795135161164403,8.629210732725262
1683588376065066800,6.158066650390625,4.179836538171768,1.3052443939328193,9.158464324176311
1683588376075074000,6.168073974609375,1.4862385283343493,0.9600748657226562,10.72171551117301
1683588376085080800,6.178080810546875,-0.5568452166013419,1.0854793609797955,11.878395483535527
1683588376095089000,6.1880888671875,0.08128492915406822,1.2123556823551653,12.9146814822793
1683588376105096000,6.198095947265625,0.7346177586078644,0.8084019567430019,13.316500533950329
1683588376115103000,6.20810302734375,0.6846689018294215,0.3601666063338518,12.590903117144107
1683588376125110000,6.218110107421875,0.11500701988339423,0.19008710304796694,11.049921045100689
1683588376135118000,6.2281181640625,-0.6574567775160074,0.39715515151321884,9.521606146928667
1683588376145124900,6.238124755859375,-0.5162719448029994,1.3578636389642953,7.280951372930407
1683588376155132000,6.2481318359375,-0.0342202495098114,2.59498843639493,3.497011510643363
1683588376165140000,6.258139892578125,1.0071464134991168,3.544758765724301,-0.7189806290149688
1683588376175146800,6.268146728515625,1.6829755907908082,4.081896972945333,-4.7617637351900335
1683588376185154000,6.278154052734375,2.0404796999171375,4.3659921469897025,-7.670429998466372
1683588376195161900,6.288161865234375,2.480935356235504,4.426643307307362,-9.402385308742522
1683588376205169000,6.2981689453125,2.3963445174038407,3.578620118793845,-9.943007266426086
1683588376215176000,6.308176025390625,2.0264744093097744,2.595720842322707,-9.197081347340346
1683588376225183000,6.318182861328125,1.1374985942915081,1.9019494733661413,-6.785252845078706
1683588376235190800,6.328190673828125,-0.325035087198019,1.674232604625821,-4.649619119000435
1683588376245198000,6.338197998046875,-3.003362024275958,0.3839437877625227,-4.594520916634798
1683588376255204900,6.348204833984375,-6.034107145518064,-0.590350741970539,-5.461853785774111
1683588376265213000,6.358212890625,-6.982362978631258,-1.1059861424356698,-5.250316482940316
1683588376275220000,6.368219970703125,-5.395625702106952,-1.1255401532113551,-4.2515111968070265
1683588376285226800,6.378226806640625,-2.1189164000332354,-0.25814941640496253,-3.6257998031198975
1683588376295234000,6.388234130859375,0.6626473318964242,0.12119769121706485,-1.9491952086657285
1683588376305241900,6.398241943359375,1.9499422276407479,0.29717268228232857,-1.2348059990942477
1683588376315249000,6.408248779296875,3.10331380610764,1.270152622285485,0.7780980038940906
1683588376325256000,6.418255859375,2.3896882743850347,0.9547983866244554,3.226436327907443
1683588376335264000,6.428263916015625,-0.7222016368880868,-0.4783487491220236,4.149147969919443
1683588376345270800,6.438270751953125,-2.2273829122319815,-1.6141712268948554,4.741771332997083
1683588376355278000,6.448278076171875,-2.9212463433861733,-1.7548311589509247,5.587898917022347
1683588376365286000,6.458285888671875,-2.0949793518677353,-0.34965924084484573,4.857139587408304
1683588376375293000,6.46829296875,-0.49460167252570386,1.3183902912318706,2.6878584432721135
1683588376385300000,6.478300048828125,0.6700932639881968,1.1702695217758416,1.6263129155874252
1683588376395306800,6.488306640625,1.453663854074478,-0.1280056176662445,1.5986293743699789
1683588376405314800,6.498314697265625,1.6025731435596942,-0.2884463549911976,1.910122258427739
1683588376415321900,6.50832177734375,0.25045272442251443,0.40205169138312336,1.9302075996011494
1683588376425329200,6.5183291015625,-1.4377563831076026,0.6951788976669311,1.2128367438703775
1683588376435337200,6.528337158203125,-1.9244801618650555,0.7601146034359931,0.9282336203038692
1683588376445344300,6.53834423828125,-1.6660443297341465,0.46260640558898447,1.2706611563295125
1683588376455351300,6.548351318359375,-1.6973893160685896,0.05128068990409374,1.6176812808424232
1683588376465359000,6.558359130859375,-1.5583452947765588,-0.27533202187418937,1.8419295966893434
1683588376475366400,6.568366455078125,-0.9721678929679095,-0.6030003801852465,2.0134528690427542
1683588376485373200,6.578373291015625,0.3065497285671532,-1.0535223802268505,1.8644944797188043
1683588376495380200,6.588380126953125,0.7261785776950419,-1.9577835887908934,-0.016221651482582092
1683588376505388300,6.59838818359375,0.56099371458292,-1.5239292304337024,-0.6839303584218025
1683588376515395000,6.60839501953125,0.0632565205104649,-0.9323322877943515,-0.5550093794763088
1683588376525402400,6.61840234375,-0.6546627628833055,-0.4293389267593622,0.14013386235535144
1683588376535410200,6.62841015625,-0.9215414291888475,-0.5651654473096132,0.45686289350092407
1683588376545417200,6.638417236328125,-1.9393973066203296,-0.42511867871582504,0.6802046158969401
1683588376555424300,6.64842431640625,-2.1839652107879517,-0.03795475986301899,0.8789087406426668
1683588376565431300,6.658431396484375,-1.8118571145087479,0.10044541056752204,0.6625988165795803
1683588376575439000,6.668439208984375,-1.6965385444581507,-0.09861761061847209,0.7015203756481408
1683588376585446400,6.6784462890625,-1.4348773205399512,-1.0713310086399317,0.8011679138362408
1683588376595453200,6.688453125,-1.862512365990877,-0.00045680385679006574,0.6841150673389435
1683588376605461200,6.698461181640625,-1.3864736473768948,2.809102019457519,0.6856979526162147
1683588376615468300,6.70846826171875,-0.2028068838894367,4.949205876687169,0.1559299819022417
1683588376625475000,6.71847509765625,2.0005571471124886,4.9226697519391776,-0.4036316540509462
1683588376635483400,6.7284833984375,2.7839062034025788,1.4196476027041673,-0.7123305234760046
1683588376645490200,6.738490234375,3.4272751265943047,-1.7594553116202354,-3.2200083406865594
1683588376655497200,6.748497314453125,2.253511040700972,-2.9857164774701,-6.606988281771541
1683588376665504300,6.758504150390625,1.2409849799901247,-4.417618873852491,-7.742279429146647
1683588376675512300,6.76851220703125,1.6797116205587983,-5.901502509623765,-9.666426121273636
1683588376685519000,6.77851904296875,1.1255039128541946,-3.609638649652898,-10.122549010062217
1683588376695526400,6.7885263671875,0.4993935829773545,-1.5905156260192392,-5.4656724672794335
1683588376705534200,6.7985341796875,-1.3131252103105187,-0.24685528445243834,-0.3577782498925924
1683588376715541200,6.808541259765625,-0.8974851385578513,0.18590104953497646,1.3070587498784065
1683588376725548300,6.81854833984375,-0.38313773207664487,1.0428872967049478,1.1596312233835457
1683588376735556400,6.828556396484375,0.6971241865158081,0.07861264120489359,1.972985834097862
1683588376745563400,6.8385634765625,0.719090226869285,2.2323788208231328,2.6883395047873258
1683588376755570200,6.848570068359375,-0.07015987015813589,3.885269654473662,2.483456399145722
1683588376765577200,6.8585771484375,0.4052653927326202,2.993008095782995,1.9504180284589527
1683588376775585300,6.868585205078125,0.42925680143386125,2.6206998007565736,1.2423790646970272
1683588376785592300,6.87859228515625,0.18637918844074008,1.6453335501387714,0.20989421180188655
1683588376795599000,6.88859912109375,-0.07914455612450838,1.4283654544278979,-1.1290239036738872
1683588376805607400,6.898607421875,-0.9482266070187091,1.3493193902418017,-1.9858271954923867
1683588376815614200,6.9086142578125,-0.8289896944805979,1.561871423076093,-1.2123597740083931
1683588376825621200,6.918621337890625,-0.8015820475950837,2.081620688600838,-0.06953530851900577
1683588376835629300,6.92862939453125,-0.8599427588880062,2.193720588865876,0.35653789444267747
1683588376845636400,6.93863623046875,-0.585626928319037,1.516620953246951,-0.17706921604275702
1683588376855643400,6.948643310546875,-0.6933852922484278,1.4312380872547625,0.6707751087725162
1683588376865650200,6.958650146484375,-0.44206805995106696,0.8400012100994586,1.7943530220001935
1683588376875658200,6.968658203125,0.08438625617027282,0.46154871322959656,1.6222241849690675
1683588376885665300,6.978665283203125,0.26146424004137514,0.5173810750886798,1.767678950086236
1683588376895672300,6.98867236328125,0.5737313233420253,0.09916618441194296,1.5616548577159641
1683588376905680100,6.99868017578125,1.026872565971315,-6.0191831326305865,-1.346866444131732
1683588376915687400,7.0086875,2.8917472771793604,-9.104878864461183,-6.595114888626337
1683588376925694200,7.018694091796875,2.7809020531505344,-5.812115084165335,-7.056676169076561
1683588376935701200,7.028701171875,1.3002822414807975,-3.940017435966432,-5.067378667125106
1683588376945709300,7.038709228515625,0.7657770131118595,-2.8625580075740813,-3.8195857606858015
1683588376955716400,7.04871630859375,1.1015689105153084,-1.470266029307246,-2.9461493139743804
1683588376965723400,7.058723388671875,1.52494527560845,-0.500558242842555,-2.0147142672806977
1683588376975731500,7.0687314453125,1.8920494261205196,-0.10062719687521457,-1.5494278288275003
1683588376985738200,7.07873828125,2.044564192751795,0.5401040712893009,-1.3103367486357689
1683588376995745300,7.088745361328125,1.6482641967631875,2.478001056349277,-1.1635293998658656
1683588377005753300,7.09875341796875,1.1013479612410069,4.658711941516399,-0.9287573519170284
1683588377015760100,7.108760009765625,1.0084458056598902,6.776990628167987,-0.33209143545031544
1683588377025767400,7.118767333984375,0.45432373041212554,7.694720974636078,0.6186766727447509
1683588377035774200,7.128774169921875,-1.755143878161907,6.376110903173685,2.2328806328654287
1683588377045782300,7.1387822265625,-3.730691087180376,4.450945973914862,3.4553532200872894
1683588377055789300,7.148789306640625,-3.405486488634348,1.534795492362976,2.350081363400817
1683588377065796400,7.15879638671875,-2.650425661456585,-1.66755794916749,0.8094143486559391
1683588377075804200,7.16880419921875,-3.4253859518468377,-2.087126008018851,0.8459083883166313
1683588377085811500,7.1788115234375,-4.413241973942518,0.14348784895837305,1.9082506193369626
1683588377095818200,7.188818359375,-4.612558093106746,1.3914537738770245,0.8142536053806543
1683588377105826300,7.198826416015625,-3.723827631151676,0.9553519288539886,-0.8302338493227959
1683588377115833300,7.208833251953125,-4.895573070698976,1.0861761110723018,-1.0602192475169896
1683588377125840100,7.218840087890625,-6.078114629548788,0.441786320400238,-1.5877537600904703
1683588377135847400,7.228847412109375,-3.0586311992943287,0.8142471756398677,-0.8899591269671916
1683588377145855200,7.238855224609375,1.325950497353077,0.5950736788392067,0.8486211544066667
1683588377155862300,7.2488623046875,2.592695941543579,-2.040817845830321,0.6234317583173513
1683588377165869300,7.258869384765625,3.032487873256206,-4.979165546143054,-1.4142542192280292
1683588377175877400,7.26887744140625,3.3205355843186375,-3.193811238634586,-1.4652315422713755
1683588377185884200,7.27888427734375,2.9556887112140653,-1.7360206600189207,-1.4495827222406863
1683588377195891500,7.288891357421875,2.774448346966505,-0.8677776902973652,-1.5922940338686107
1683588377205899300,7.298899169921875,2.790619729566574,0.2523141343802214,-1.4492463298931717
1683588377215906000,7.308906005859375,2.489822427046299,0.9045043696701526,-1.2513307251766324
1683588377225913300,7.318913330078125,1.6711036589503288,-0.9071241967797279,-2.290602169471979
1683588377235920100,7.328920166015625,1.0529717606067657,-0.4092272821009159,-2.1974176898181437
1683588377245928200,7.33892822265625,-0.013431143981218337,-0.39476504150629044,-2.2800781451091168
1683588377255935200,7.348935302734375,-0.9516694409489631,0.2997515928596258,-2.038705091460049
1683588377265942300,7.3589423828125,-1.4536907420814036,0.8274392501682043,-1.5694406892865895
1683588377275950000,7.3689501953125,-1.4084277050316334,0.40767186935245986,-1.2042170918241142
1683588377285957400,7.378957275390625,-1.5038883129239082,0.23928981763422488,-0.702394820395112
1683588377295964200,7.388964111328125,-1.695781004089117,0.4501368001163006,-0.383560925924778
1683588377305971200,7.39897119140625,-1.1231121954120695,1.5614403381824493,0.28979572377353907
1683588377315979300,7.408979248046875,-0.6210369721353054,2.521240478616953,1.073314583672583
1683588377325986000,7.418986083984375,-0.171407610084489,1.9376134919434784,0.8419991059184074
1683588377335993300,7.428993408203125,0.5592858146864921,2.3275299243748186,1.261575932598114
1683588377346001200,7.439001220703125,1.0978302354436367,3.6309266446143384,2.4880869815558193
1683588377356008200,7.44900830078125,1.3042425234138966,3.2077158453464505,2.652555366961658
1683588377366015200,7.45901513671875,1.3699369385957718,2.6527906370222567,2.6838153053611515
1683588377376023300,7.469023193359375,0.8988801000475883,2.4260119259148833,2.4818714680418372
1683588377386030000,7.479030029296875,0.4089338521122932,2.4052526310026643,2.084079479929805
1683588377396037400,7.489037353515625,0.05265256277918815,2.2889655081808566,1.776050764851272
1683588377406044200,7.499044189453125,-0.009976692678406835,2.103030848637223,1.3783227818861603
1683588377416052200,7.50905224609375,0.06727255121879279,1.9931009858876465,1.1711834217503667
1683588377426058500,7.51905859375,-0.11867551579568535,1.6511311305016279,0.9877756503358482
1683588377436065800,7.529065673828125,-0.6639853025019169,1.461782278600335,0.9001309768915176
1683588377446073600,7.539073486328125,-1.4111246890306473,1.483265211611986,0.7401601951658725
1683588377456080600,7.54908056640625,-2.1765467512249947,1.1745102280855177,0.579306200864911
1683588377466087700,7.559087646484375,-2.362821017986536,-0.36221652460098264,0.01745528493076563
1683588377476095700,7.569095703125,-1.9589736753582954,-2.6448054834872483,-1.2313538128137589
1683588377486102500,7.5791025390625,-0.8002385240316391,-2.072668443599343,-1.5904738327041268
1683588377496109800,7.58910986328125,0.3383119174003601,-0.48102001415789125,-1.3182801088556646
1683588377506116600,7.59911669921875,1.669431926345825,0.49641339812278745,-0.9142571173995733
1683588377516124700,7.609124755859375,2.8166297846138475,0.2574959209322929,-0.6435217756658792
1683588377526131700,7.619131591796875,3.3094612325966355,-0.35673838545083997,-0.32525603647232054
1683588377536138500,7.629138427734375,3.0707085905790326,-0.6553501606255769,0.0026034604966640473
1683588377546146600,7.639146484375,2.3052748379468917,-0.8551105164259671,0.24033143564164638
1683588377556153600,7.649153564453125,1.2686930711269377,-0.8076806567311287,0.4746054709404707
1683588377566160600,7.65916064453125,-0.06866729351282119,-0.8103601050734519,0.422867684918642
1683588377576168400,7.66916845703125,-1.4834849918425081,-0.7257493924975394,0.0524368742018938
1683588377586175700,7.67917578125,-2.435636078828573,-0.689943919622898,-0.48450376462042327
1683588377596182500,7.6891826171875,-2.7217607128739356,-0.6256406665384769,-1.02487671597898
1683588377606189800,7.69918994140625,-2.3647055165588853,-0.7378875740587711,-1.5186895762145518
1683588377616197600,7.70919775390625,-1.484943958479166,-0.8197475266218185,-1.8661469231009482
1683588377626204700,7.71920458984375,-0.6262871477484703,-0.7346165895640849,-1.9880653298079967
1683588377636211700,7.729211669921875,-0.24563188013732432,-0.6693354313582182,-1.817073387852311
1683588377646219800,7.7392197265625,-0.016069091269373892,-0.485112251907587,-1.367797003957629
1683588377656226600,7.7492265625,0.32778818529844284,-0.19077859244346618,-0.7407353647053241
1683588377666233600,7.759233642578125,0.7019897467255591,0.11325579230189323,-0.27048282827734943
1683588377676241700,7.76924169921875,0.8299936108261347,0.2024409731864929,-0.014531798699498175
1683588377686248400,7.77924853515625,0.5130582069208846,0.6313350787878036,0.06544014815986156
1683588377696255700,7.789255859375,0.5979437178501859,1.0303811586141585,0.09111468764245509
1683588377706262500,7.799262451171875,0.4438357272107154,1.6756868950873611,0.24484452915191648
1683588377716270600,7.8092705078125,-0.913037804737687,2.004345433479547,0.2327186225503683
1683588377726277600,7.819277587890625,-1.6271172177076338,1.7145172687411308,0.21903262702524662
1683588377736284700,7.82928466796875,-1.1033960528772324,1.3066934236973524,0.22743454466760157
1683588377746292500,7.83929248046875,-0.4203307503195479,1.1772095501720905,0.16550445045530796
1683588377756299800,7.8492998046875,0.11699618440661579,1.1136387030154467,0.27583295713365075
1683588377766306600,7.859306640625,0.5233481667995452,1.013901148456335,0.42325931458473204
1683588377776314600,7.869314697265625,0.6783412331778556,0.8380582593381405,0.5514712684780358
1683588377786321700,7.87932177734375,0.7576268782734871,0.574326658886671,0.7358347331821918
1683588377796328400,7.889328369140625,0.7617167779356241,0.3580412847429514,0.911286577156186
1683588377806335700,7.899335693359375,0.7529261532366275,0.15297405470609665,1.0127285975456237
1683588377816343600,7.909343505859375,1.0370190622586757,-0.031126375147700308,0.9214023129791021
1683588377826350600,7.9193505859375,1.5776656429268419,-0.2933078235477209,0.7143798572212458
1683588377836357600,7.929357666015625,1.514500307831168,-0.14331541500091552,0.543384408134222
1683588377846365700,7.93936572265625,0.8040555250365287,0.3259673996120691,0.4279617931872606
1683588377856372500,7.94937255859375,0.5357547169733792,0.30641514240205286,0.33231706089973445
1683588377866379800,7.9593798828125,0.08448686700053512,0.4132774342745542,0.23497779965400695
1683588377876386600,7.969386474609375,-0.2858990085959434,0.7513222251713275,0.21420155360698698
1683588377886394600,7.97939453125,-0.42286994994096455,0.9987556017726659,0.20709201386272907
1683588377896401700,7.989401611328125,-0.23261859624199568,0.9711492174446582,0.20018004251718519
1683588377906408400,7.999408447265625,-0.08677285904586314,0.9399041843533515,0.19383739549219609
1683588377916416800,8.009416748046876,0.05649236013777554,0.9611094694674015,0.25515958693921564
1683588377926423600,8.019423583984375,-0.09683891050815582,0.8338058625906706,0.13426818519234657
1683588377936430600,8.0294306640625,-0.2976198415279388,0.5516589000046253,0.006547229686379432
1683588377946438700,8.039438720703124,-0.9364005601465701,0.21829320683479309,-0.1292249303281307
1683588377956445700,8.04944580078125,-2.6737849097341297,-0.6067173548817634,-0.24956571245491505
1683588377966452500,8.059452392578125,-3.7188568570017813,-2.5957553291141986,-0.7013771677851677
1683588377976459800,8.069459716796874,0.02707841493114829,-4.8558518856853246,-1.120967438468337
1683588377986467600,8.079467529296876,2.614542447170615,-6.072587390559911,0.012846037569642066
1683588377996474600,8.089474609375,2.5399393338680265,-6.13879793857038,0.17307225536108015
1683588378006481700,8.099481689453125,1.0045160649955271,-5.5129532738924025,-2.8605297166168686
1683588378016489700,8.10948974609375,-2.1907059172198173,-4.162202681803703,-4.42211501622796
1683588378026496800,8.119496826171876,-0.9627671004813164,-2.469002341857552,-3.2488293615013357
1683588378036503600,8.129503662109375,0.7362223442602902,-0.4307067079812288,-1.463951439332962
1683588378046511600,8.13951171875,1.9979339590020477,1.8854373145043848,-0.5699333923637867
1683588378056518700,8.1495185546875,2.1763684720486403,4.2426124355584385,-0.4503863909631967
1683588378066525700,8.159525634765625,1.2701000153154134,5.895554414874315,-0.43964989289343354
1683588378076532500,8.169532470703125,-0.3970150123901665,5.963518528553843,-0.5617302121639252
1683588378086540800,8.179540771484374,-2.1466122162103654,3.5240298659503457,-0.3454056750535965
1683588378096547600,8.189547607421876,-2.989177723839879,0.8154939608305692,0.03196867119073868
1683588378106554600,8.1995546875,-3.174205205410719,-0.7047644721359014,-0.1443278069138527
1683588378116562700,8.209562744140625,-2.834851670002937,-1.4638462253928184,-0.425096466884017
1683588378126569700,8.21956982421875,-2.1951514984518288,-1.5817039585322141,-0.5387736994683742
1683588378136576800,8.22957666015625,-1.280499828776717,-1.1927689383536577,-0.4919675246298313
1683588378146584800,8.239584716796875,-0.29761750344038007,-0.7698626749902964,-0.33014848468899727
1683588378156591600,8.249591552734374,0.6010743805587291,-0.5085416428118944,-0.19176760348081587
1683588378166598700,8.2595986328125,1.5139514417767523,-0.2377028407037258,-0.1216705694258213
1683588378176605700,8.269605712890625,1.7783369760923087,0.19059622161388395,-0.07800210809111595
1683588378186613500,8.279613525390625,1.5490012739785015,0.46246436676979064,0.05789806221723556
1683588378196620800,8.289620849609374,0.9809116097852587,0.4682628239154815,0.279704245609045
1683588378206627600,8.299627685546875,0.36569457597509025,0.4339660020381212,0.3525461944580078
1683588378216635600,8.3096357421875,0.17808116956427691,0.4126648553341627,0.28657413137853144
1683588378226642700,8.319642578125,0.5376866348840296,0.503297896939516,-0.051098903596401214
1683588378236649700,8.329649658203126,0.808471660978347,0.7747796731263399,-0.1362707571864128
1683588378246656800,8.33965673828125,0.7313169634968042,1.0355080001085997,0.058176294636726376
1683588378256664800,8.349664794921875,0.5924189265467226,0.7019120053142309,0.3968009312480688
1683588378266671600,8.359671630859374,0.5003296947836876,0.28409458952248096,0.6135042385429144
1683588378276678700,8.3696787109375,0.06966931016221642,-0.19535013814270497,0.6022545302540063
1683588378286686700,8.379686767578125,-0.17736732220649717,-0.7462211026400327,0.7015589540928602
1683588378296693500,8.389693603515624,-0.05073650002479553,-0.7899532768607139,0.6459370201140642
1683588378306700800,8.39970068359375,0.15101839059367775,-0.3647936816126108,0.2652987036377191
1683588378316707600,8.40970751953125,0.14867781881690023,-0.07811667438149451,-0.03883504982888698
1683588378326715600,8.419715576171875,0.4421709358036518,0.05575988114476203,-0.009197451934218406
1683588378336722700,8.42972265625,0.34700668050944805,-0.1371592304587364,0.20416531276106833
1683588378346729700,8.439729736328125,-0.07484729732200503,-0.5713233854174614,0.6194985105216503
1683588378356737500,8.449737548828125,-0.02050488175973296,-1.138918105700612,0.8103975144743919
1683588378366744600,8.45974462890625,0.3757635500468314,-1.9052765719622373,0.8927098869800567
1683588378376751600,8.469751708984376,0.49728316669464107,-2.141744902434945,0.48833530560731886
1683588378386759400,8.479759521484375,0.34780937519446015,-1.6437141322433948,0.015237316620349883
1683588378396766700,8.4897666015625,0.13294906541779636,-0.7850754416912794,-0.26212942595183847
1683588378406773500,8.4997734375,0.0177244572609663,0.03664133917689323,-0.3032628158509731
1683588378416780800,8.50978076171875,0.22072481789588927,0.6217489197969436,-0.3210416336476803
1683588378426789400,8.519789306640625,0.46576048570573325,1.0169155278414488,-0.2821253352761268
1683588378436796200,8.529796142578125,0.7336252404391765,1.4008371037721634,-0.04430383662879467
1683588378446803500,8.539803466796876,0.814337045880407,1.7414970456033945,0.11788929732143878
1683588378456811300,8.549811279296875,0.23141747682392597,2.0219208376586435,-0.31483868735432624
1683588378466818300,8.559818359375,-0.6248118144989013,1.7926432954728602,-0.7248655954003334
1683588378476825300,8.569825439453124,-1.2088413906238973,1.0583943701773881,-0.9650812957078218
1683588378486833400,8.57983349609375,-1.654882445859164,0.5327946250587702,-1.3986679430395363
1683588378496840200,8.589840087890625,-2.1197645412951704,0.4019312798738479,-2.129450653529167
1683588378506847200,8.59984716796875,-1.9067974979192017,0.21989830394387244,-2.157985843139887
1683588378516854300,8.609854248046876,-1.0830027417331933,-0.2910153286963701,-1.5058745183050632
1683588378526862000,8.619862060546875,-0.23637071531713008,-0.605336129656434,-1.136598138320446
1683588378536869400,8.629869384765625,0.5400719225853681,-0.8673854761093854,-0.8675906432926654
1683588378546876200,8.639876220703124,1.1706449309594928,-0.7664455600231885,-0.7756669773548841
1683588378556884200,8.64988427734375,1.246475540230423,-0.3648065410941839,-0.7089315286874771
1683588378566891300,8.659891357421875,0.90697105204463,-0.05748948141634464,-0.3684937051743269
1683588378576898300,8.669898193359375,0.4791923603393137,0.04368541246950626,-0.0840735369592905
1683588378586905300,8.6799052734375,0.0530336710512638,0.11806465388834476,0.07704816836714744
1683588378596913400,8.689913330078125,-0.14933482142090795,0.18421791875362395,0.14216449140012263
1683588378606920200,8.699920166015625,-0.10665814760252833,0.19709785859286785,0.18574293636381625
1683588378616927200,8.70992724609375,0.016651421201974152,0.2174777987986803,0.27764029881656166
1683588378626935300,8.719935302734376,0.21449162259474394,0.3429688032954931,0.43244741416871546
1683588378636942000,8.729942138671875,0.3605858546592295,0.4383896636992693,0.5629115309029817
1683588378646949400,8.739949462890625,0.3679531685568392,0.5425538025289773,0.8199754901587962
1683588378656956200,8.7499560546875,0.36998613568916916,0.6907119813859462,1.1630284646064042
1683588378666964200,8.759964111328125,0.3191029206700623,0.8280991753816604,1.299282270658016
1683588378676971300,8.76997119140625,0.24417232897877691,0.8795663277685641,1.2699193980515002
1683588378686978300,8.779978271484374,0.4596592462211847,0.8650240076750516,1.2999217376053334
1683588378696986000,8.789986083984376,0.7643126396477222,0.922623963728547,1.3994681535065174
1683588378706993400,8.799993408203125,0.6264093128234147,1.064479827570915,1.3533651585012674
1683588378717000200,8.810000244140625,0.2449526657015085,1.2165981422305105,1.2319623001009226
1683588378727008300,8.82000830078125,-0.4533236134588718,1.3737573736667632,0.806126413026452
1683588378737015300,8.830015380859376,-0.9683423433303833,1.4790572385281324,0.642841392186284
1683588378747022000,8.84002197265625,-1.0242644292995333,1.4700678763866424,0.6939169149070977
1683588378757029400,8.850029296875,-1.0300772072315216,1.192919160479307,0.7344961780548095
1683588378767037200,8.860037109375,-0.9364734792523085,0.6818915460705757,0.6015963586062193
1683588378777044200,8.870044189453125,-0.8469955990314483,0.10712357315719127,0.08112696211338043
1683588378787051300,8.88005126953125,-0.7681517063539475,-0.429236635428667,-0.6363590444296598
1683588378797059300,8.890059326171874,-0.6117638976816088,-0.9777589909732342,-1.603101551347971
1683588378807066000,8.900066162109376,-0.24217092602849005,-1.0899807640522718,-2.2562919035911557
1683588378817073400,8.910073486328125,-0.5751726081915199,-0.9784785374194384,-2.0463269646406173
1683588378827080200,8.920080078125,-1.1715174029450863,-0.09277999050617218,-1.5162433521062135
1683588378837088300,8.930088134765626,-2.057528157612681,0.223211374014616,-0.5887240175515412
1683588378847095300,8.94009521484375,-2.585334472864866,0.13568155912160873,0.3354559434473514
1683588378857102000,8.95010205078125,-2.348775541499257,0.06710778911113739,0.6301157661259174
1683588378867110100,8.960110107421874,-1.5354665234923361,0.07387187641859054,0.8446510817319154
1683588378877117200,8.9701171875,-0.4074094190239906,-0.0043634559065103525,0.7251724693924189
1683588378887124200,8.980124267578125,0.6458172661919146,-0.41103170117437837,0.19333821379840374
1683588378897132000,8.990132080078125,1.5592191550016403,-1.2108043612599373,-0.5285048189103603
1683588378907139300,9.000139404296876,1.955434395316243,-1.8358488154709338,-0.9160884244799613
1683588378917146000,9.01014599609375,1.7570792301386593,-1.9994442174345253,-0.9438064524888992
1683588378927153400,9.0201533203125,0.9574187982559204,-1.7548726600050926,-0.6074170275837183
1683588378937161200,9.0301611328125,-0.039601942548155786,-1.4324842879235744,-0.10181026917994022
1683588378947168300,9.040168212890626,-0.6574297433786094,-1.0602437974363565,0.387328169503808
1683588378957175300,9.05017529296875,-0.82875267085433,-0.7407061386108398,0.8547761699050664
1683588378967183400,9.060183349609375,-0.624690087815374,-0.5441127224087715,1.0754413665682077
1683588378977190100,9.070190185546876,-0.09713599375858903,-0.4650269107341766,0.8747036901682614
1683588378987197200,9.080197265625,0.4637818791091442,-0.3861433436334133,0.40825405315458774
1683588378997204200,9.090204345703125,0.8979162234514951,-0.3174205205410719,-0.10418927327096461
1683588379007212300,9.10021240234375,1.1324924565672874,-0.22625030331909654,-0.44063890393078325
1683588379017219300,9.11021923828125,1.248263446560502,-0.12163140645921229,-0.41345103727579113
1683588379027226000,9.12022607421875,1.3898071757137775,0.039563948625326154,-0.11914017416536807
1683588379037234400,9.130234375,1.2432207762181757,0.24001871643066405,0.18865385537445545
1683588379047241200,9.1402412109375,0.8764565251849591,0.4484066153228283,0.28064240324199197
1683588379057248300,9.150248291015625,0.42082770352363585,0.7185965981334448,0.4238794923096895
1683588379067255300,9.16025537109375,0.09131400960683822,0.9814549228817224,0.4943950440376997
1683588379077263400,9.170263427734374,-0.12033479077741503,1.1263719278603792,0.4989209970295429
1683588379087270100,9.180270263671876,-0.20925299128890038,1.1913450430303811,0.44837563566267485
1683588379097277200,9.190277099609375,-0.12639336016401648,1.1050602597624062,0.22851474111974238
1683588379107285200,9.20028515625,0.060115738266706464,0.953150619417429,-0.10399228939414024
1683588379117292300,9.210292236328126,0.2253567154802382,0.6861661546498536,-0.5299994413822889
1683588379127299300,9.22029931640625,0.08488879886493086,0.5438859279155731,-0.6374047540903091
1683588379137306000,9.23030615234375,-0.0852117472089827,0.5001321263849735,-0.48673196206390856
1683588379147314400,9.240314453125,-0.07900996995940804,0.4965852475583553,-0.34834582015872
1683588379157321200,9.2503212890625,0.032720512471348044,0.37981297156810756,-0.2996078004747629
1683588379167328300,9.260328369140625,0.09054200232103467,0.18497896625399587,-0.25899872671067714
1683588379177336300,9.27033642578125,0.10036036263257264,0.0044049569606781,-0.14043138399720193
1683588379187343400,9.28034326171875,0.19019173246622084,-0.1387403621703386,0.01310205815732479
1683588379197350100,9.29035009765625,0.2465701839007437,-0.27505495849847794,0.11921382392346858
1683588379207358500,9.3003583984375,0.2207331473328173,-0.5011608849108219,0.27228607830703255
1683588379217365200,9.310365234375,0.21652385907471178,-0.6592682108521462,0.29464287154376506
1683588379227372300,9.320372314453126,0.19639000258445738,-0.7486760945767164,0.11773381449878215
1683588379237379300,9.33037939453125,0.2052864257454872,-0.7341933957159519,-0.11068506503105163
1683588379247387100,9.34038720703125,0.19300094466805456,-0.5323462967693805,-0.3609463585346937
1683588379257394400,9.35039453125,0.19335180393233894,-0.19755437018871305,-0.6391536435842514
1683588379267401200,9.360401123046875,0.16945596456006168,0.04552899450957775,-0.7802052053064108
1683588379277409300,9.3704091796875,0.02460077277123928,0.17296587237715721,-0.828116711038351
1683588379287416300,9.380416259765624,-0.19379881704747676,0.3080687548279762,-0.8567612062424421
1683588379297423400,9.39042333984375,-0.19854922644495962,0.2822831561863422,-0.6717296330183744
1683588379307430100,9.40043017578125,-0.23621114084124564,0.24577742608785627,-0.4985679458081722
1683588379317438500,9.4104384765625,-0.23331965718343853,0.11356383533775806,-0.36696459591090674
1683588379327445200,9.4204453125,-0.1174444761633873,0.043189153385162354,-0.2653402046918869
1683588379337452300,9.430452392578125,-0.04990238728821277,0.020728315252065657,-0.2880085480958223
1683588379347460400,9.44046044921875,0.05367942160889506,0.1166904429256916,-0.37758302055895326
1683588379357467100,9.450467041015624,0.3055763534903526,0.25989889042079445,-0.5351221912235021
1683588379367474400,9.460474365234376,0.6305716931998729,0.47115211561620235,-0.6700608230233192
1683588379377481200,9.470481201171875,1.064415676293522,0.7380319509655237,-0.6422866809129715
1683588379387489300,9.4804892578125,1.1772511242914945,0.8433557812243699,-0.56099371458292
1683588379397496300,9.490496337890624,0.6382261534757911,0.6117243693888187,-0.632763065764308
1683588379407503400,9.50050341796875,-0.17614442934803665,0.28072715891599653,-0.6236731658577919
1683588379417511200,9.51051123046875,-1.0309656074386089,0.21073007810413835,-0.4877776717245578
1683588379427518200,9.520518310546874,-1.6523481050759552,0.349921691173315,-0.38102059379220005
1683588379437525200,9.530525146484376,-1.5760101308047771,0.5687538271903991,-0.39172143602669235
1683588379447532300,9.5405322265625,-1.0284247638493775,0.7339742000073194,-0.4554074339956045
1683588379457540400,9.550540283203125,-0.5583913500647991,0.8279325866430998,-0.6138689802020788
1683588379467547100,9.560547119140624,-0.30457908608131107,0.8785065895825624,-0.7952607356190681
1683588379477554200,9.57055419921875,0.04542663011364639,1.0400561649322508,-0.7961258280158042
1683588379487562200,9.580562255859375,0.11496204823050647,0.9436831183701753,-0.6354553735882044
1683588379497569000,9.590569091796874,-0.3384024817606434,0.5525140555292367,-0.3885533273845911
1683588379507576300,9.600576416015626,-1.193657996147871,0.29767069493234155,-0.039844519132375716
1683588379517584100,9.610584228515625,-1.5513918223768473,0.1132522851705551,0.31515900534987445
1683588379527591200,9.620591064453125,-1.3185516192734241,0.2801923213869333,0.6557593259483575
1683588379537598200,9.63059814453125,-0.8881389988679438,0.31615736873745914,0.9511953936964272
1683588379547605200,9.640605224609375,-0.29158472608216107,0.13264262981712818,1.2196861713737248
1683588379557613000,9.650613037109375,0.5946458088159561,-0.06059679978191852,1.3127297812521457
1683588379567620400,9.660620361328125,1.5040689301878214,-0.14160685751736163,1.357409465456009
1683588379577627100,9.670627197265626,1.4623241303920744,-0.32044132966697214,1.3157108428895472
1683588379587635200,9.68063525390625,1.1995721886277197,-0.6200999835461378,0.9181354201376437
1683588379597642200,9.690642333984375,0.45478959435820576,-0.051513329616189,-0.16805530398190022
1683588379607649000,9.70064892578125,-0.3075368033757433,0.657759559854865,-0.8852741840213537
1683588379617656300,9.71065625,-0.5670066912621259,0.6303139190465211,-0.2666349206775427
1683588379627664100,9.7206640625,-0.5108908362865447,1.2694915280282497,0.20337094751298426
1683588379637671200,9.730671142578124,-0.406674127019383,1.4037696500927208,0.9807271931290626
1683588379647678200,9.74067822265625,-0.09600479777157306,1.1401952860295772,1.7821768465161323
1683588379657686300,9.750686279296875,0.08003452723417431,0.8302648289829492,2.332538692447543
1683588379667693000,9.760693115234375,-0.22917466633319852,0.5940928511083126,2.7889889134943484
1683588379677700400,9.770700439453124,-0.6763707368224858,0.6843816093206405,3.290331000190973
1683588379687707100,9.78070703125,-1.0800964988976716,1.0169827478587627,3.685766488304734
1683588379697715200,9.790715087890625,-1.347908646661043,1.379472244182229,3.9002024351894855
1683588379707722200,9.80072216796875,-1.2858873670339583,1.3368968387812374,3.8536248084098097
1683588379717729000,9.81072900390625,-0.5565104316890239,0.5519423931211233,3.5383687724262476
1683588379727737000,9.820737060546875,0.6164677645236253,-0.2590472420275211,3.103869686424732
1683588379737744100,9.830744140625,1.2533552167415618,-0.8569844936043024,3.01741130015552
1683588379747751200,9.840751220703124,1.7985118952453136,-1.4231465507358312,2.7859137438327073
1683588379757758200,9.85075830078125,2.020381207001209,-1.839904812863469,2.0079186157912017
1683588379767766300,9.860766357421875,2.137365664437413,-2.05232708183825,0.8203080831140279
1683588379777773000,9.87077294921875,1.832511780002713,-2.188705975574255,-0.19239187285900114
1683588379787780400,9.8807802734375,0.7869955960988998,-1.9235387893617153,-0.4754354920238256
1683588379797788200,9.8907880859375,0.14633856221437452,-1.480135681414604,-0.9398480702519416
1683588379807795200,9.900795166015625,-0.1847743835926056,-1.2199655728369951,-1.5851573138564825
1683588379817802200,9.91080224609375,-0.7042834106206893,-1.2253747384041547,-1.823603081882
1683588379827809000,9.92080908203125,-1.4929261894047259,-1.3489368206650019,-1.9353665897995231
1683588379837817000,9.930817138671875,-2.3135504988610744,-1.5676614046543835,-2.3169126687705517
1683588379847824100,9.94082421875,-2.5680934152066706,-1.8289748380482196,-2.903517209950089
1683588379857831200,9.9508310546875,-2.6136241632819175,-1.9382225637525319,-3.228025058403611
1683588379867839000,9.9608388671875,-2.2291385237276553,-1.6012240670382976,-2.7004379388600586
1683588379877846300,9.97084619140625,-1.4361673603504896,-1.0185445903480053,-1.9546429526776075
1683588379887853000,9.98085302734375,-0.4579249697744846,-0.48135962137579913,-1.2725859869122504
1683588379897860400,9.9908603515625,0.252812731552124,-0.18802549434304236,-1.2256792743086815
1683588379907868200,10.0008681640625,0.8852244996607304,-0.18144085525572298,-1.6279104139119385
1683588379917875200,10.010875244140625,1.3248212010622025,-0.18629355598390102,-1.7453870387792587
1683588379927882200,10.02088232421875,1.5121628047943114,-0.21846564079225061,-1.7431600103795528
1683588379937890300,10.030890380859375,1.5568313830822704,-0.22229133656024933,-1.5770207691520453
1683588379947897000,10.04089697265625,1.4741642057895659,-0.15861527546346188,-1.4545394678652286
1683588379957904100,10.050904052734374,1.2765063752263783,-0.04041851962804794,-1.36510937230885
1683588379967911200,10.0609111328125,1.0365688342731445,0.20777298186421392,-1.1638204917669295
1683588379977919000,10.0709189453125,0.7330682641435414,0.540437833288312,-0.7860077541053294
1683588379987926300,10.08092626953125,0.44658056893944736,0.8619500070571899,-0.33639059394896026
1683588379997933000,10.09093310546875,0.31503041053414343,1.1609575035512447,0.31046003387868404
1683588380007941000,10.100941162109375,0.2762503422955051,1.328273971864581,0.8836334310770034
1683588380017948200,10.1109482421875,0.3120259680211544,1.3505027548074722,1.3258470369786024
1683588380027955200,10.120955078125,0.3522165971774608,1.329564596197009,1.3677122482836246
1683588380037962200,10.130962158203126,0.6048364365059882,1.3267249888569115,0.9841326176583767
1683588380047970300,10.14097021484375,1.0015677365839482,1.2990350178986787,0.23972294835448263
1683588380057977000,10.15097705078125,1.4582599496930837,1.2226555425733328,-0.6706675567448139
1683588380067984100,10.160984130859376,1.840130438312888,1.1259183388739824,-1.4766957700937986
1683588380077992200,10.1709921875,1.9498779302328824,0.9661579850286245,-2.1727830147773024
1683588380087999200,10.180999267578125,1.6739128711521625,0.7208060908764601,-2.5577245814055205
1683588380098006300,10.19100634765625,1.0302643273014576,0.486589338722825,-2.17938986569643
1683588380108013000,10.201012939453125,0.27139826262183486,0.27492636368274687,-1.151754790920019
1683588380118021400,10.211021484375,-0.4219225130230188,0.15371055228710173,-0.16397884832322596
1683588380128028200,10.221028076171875,-1.0740144025050102,0.13815993193387985,0.2217220122396946
1683588380138035200,10.23103515625,-1.4778582380019127,0.20842589281499385,0.20634382584393024
1683588380148043300,10.241043212890625,-1.5233096372306345,0.3074924162447452,0.12553718172609804
1683588380158050000,10.251050048828125,-1.2384756275177,0.3806441616952419,-0.12465630723834037
1683588380168057000,10.26105712890625,-0.9139128340065479,0.49696577130854125,-0.2429354806602001
1683588380178064100,10.271064208984376,-0.5859726364841684,0.49278351718783375,-0.18446458699107168
1683588380188072200,10.281072265625,-0.3484621034821495,0.426114704015851,-0.08833820866644382
1683588380198079200,10.291079345703125,-0.2542967960974201,0.21227380041480062,-0.19066519519686698
1683588380208086300,10.301086181640626,-0.2678565348943695,-0.010932312902808189,-0.3784229785144329
1683588380218094000,10.311093994140625,-0.4022901763141155,-0.004845101943612098,-0.45160511910319323
1683588380228101400,10.321101318359375,-0.7813140433311462,-0.04345978702008724,-0.9458604624092578
1683588380238108200,10.331108154296874,-1.2118582542270422,-0.21033903295993803,-1.4376982231795787
1683588380248115000,10.341114990234376,-1.185050911322236,0.17286825722157953,-1.1679705971837042
1683588380258123300,10.351123291015625,-0.9418705159902572,0.39176176803708074,-0.811008924371004
1683588380268130000,10.361130126953125,-0.7221124972999096,0.3516775949299335,-0.1857008507877588
1683588380278137000,10.37113720703125,-0.292930806928873,0.38983810649812217,0.6804922006666659
1683588380288144100,10.38114404296875,-0.3339771030664444,-0.13832184449732302,0.9395599009603262
1683588380298152200,10.391152099609375,-0.5092191036820412,-0.6486965479552745,1.1484674398124217
1683588380308159200,10.4011591796875,-0.5781213749945163,-1.0913117203950882,1.3396481833159923
1683588380318166300,10.411166259765626,-0.5203144981920719,-1.195733633378148,1.749180001321435
1683588380328174000,10.421174072265625,-0.06958966905474662,-1.0577776995837689,1.9845786567360162
1683588380338181400,10.431181396484375,0.5449065031349659,-0.6818652425855398,2.0317390518397094
1683588380348188200,10.441188232421876,0.7228115854799747,-0.2421077976644039,1.7963935879170894
1683588380358195000,10.45119482421875,0.46604156766943633,-0.11682722104787825,1.3623545206427574
1683588380368203300,10.461203369140625,0.11076452347543089,-0.16845862408578394,0.9254320068866014
1683588380378210000,10.4712099609375,-0.26552491360902786,-0.3326958310842514,0.6173685127556323
1683588380388217000,10.481217041015626,-0.3477016770362854,-0.6936445277065039,0.3826876502215862
1683588380398225200,10.49122509765625,-0.0014823840448632834,-0.6451046609431504,0.7083551901042461
1683588380408232200,10.501232177734375,0.472888657085225,-0.5408054975569248,0.7195458616822957
1683588380418239200,10.5112392578125,0.4569616777002811,-0.6011071137845516,0.6737643537163734
1683588380428246000,10.52124609375,0.20934651479125022,-0.6631734015971422,0.5567237821787595
1683588380438253800,10.53125390625,-0.02257660999987274,-0.5099152692526578,0.38686990434229374
1683588380448261000,10.54126123046875,-0.15481296057105062,-0.17833762854337692,0.3285258519232273
1683588380458268000,10.551267822265626,-0.10899466425869614,0.18656039022654294,0.14154431367516518
1683588380468276000,10.56127587890625,0.0954758054614067,0.4505670082271099,-0.20500293262898922
1683588380478283000,10.571282958984375,0.21646953507158903,0.620957477158308,-0.7307032155126333
1683588380488289800,10.581289794921876,0.08781268695499747,0.7421428934156894,-1.1086129838079213
1683588380498297000,10.591297119140625,-0.08931267972178757,0.7828557198151945,-1.159506135699153
1683588380508305000,10.601304931640625,-0.24500706276986747,0.8015314864516258,-1.0778823299795388
1683588380518312000,10.61131201171875,-0.33333420205302533,0.9043655457213521,-0.885909559315443
1683588380528319000,10.621319091796876,-0.27444358513448386,1.0093161587536335,-0.658210810753703
1683588380538327000,10.6313271484375,-0.2210065574467182,0.88792002235502,-0.4041811046272516
1683588380548333800,10.641333740234375,-0.09864742123484611,0.7617290528953075,-0.3296463803857565
1683588380558341000,10.651341064453124,0.0040963659355416895,0.6648284753277898,-0.353825128352642
1683588380568348000,10.661347900390625,0.011081402517296373,0.4841290860891342,-0.2260737777084112
1683588380578356000,10.67135595703125,0.035099406964518125,0.34881343767046924,-0.05678863967061042
1683588380588363000,10.681363037109374,-0.02430442017316818,0.24538345833420752,0.008618775263428687
1683588380598369800,10.691369873046876,-0.10289806441664695,0.19407471137940882,0.09465922838151454
1683588380608377000,10.701377197265625,-0.1248597208559513,0.21371230878531933,0.16711714634895325
1683588380618385000,10.711385009765625,-0.08473693277146667,0.23032179054170845,0.08241174122691154
1683588380628392000,10.721391845703126,-0.06605214257836342,0.220012870234251,-0.06625204906463622
1683588380638399000,10.73139892578125,-0.010993724233843385,0.1878352324679494,-0.21943536260724067
1683588380648407000,10.741406982421875,0.034719394670985636,0.21604425886422393,-0.34612580602169035
1683588380658413800,10.751413818359374,0.10174655629396438,0.21616788524389266,-0.35711890920102596
1683588380668421000,10.761421142578126,0.1635760762086138,0.24418255811184644,-0.36215456528067586
1683588380678428000,10.771427978515625,0.10335629304554313,0.3121016636058688,-0.4231774815201759
1683588380688436000,10.78143603515625,0.05768642876055091,0.38456805714070796,-0.46655309738814826
1683588380698443000,10.791443115234374,0.06913023484945297,0.3684717856034636,-0.5135726227164268
1683588380708449800,10.80144970703125,0.15141455030441284,0.3060460168287158,-0.5418342560827731
1683588380718457900,10.811457763671875,0.18474983367323874,0.22219956662356852,-0.549928715211153
1683588380728465000,10.82146484375,0.2188110932290554,0.1489011061787605,-0.4827782560020685
1683588380738472000,10.831471923828126,0.23054244755506514,0.15181144066751,-0.4079454255968332
1683588380748479000,10.84147900390625,0.1965290822615847,0.21570465164631603,-0.3302899389863014
1683588380758487000,10.851487060546875,0.2021100972643122,0.2502455114126205,-0.2786906846523285
1683588380768493800,10.861493896484374,0.25776593351271004,0.22874475048333406,-0.2806897495150566
1683588380778501000,10.871501220703125,0.2979518134286627,0.162962364757061,-0.27678689685761926
1683588380788509000,10.881509033203125,0.23519874892830847,0.08565233058333396,-0.26724574605226514
1683588380798516000,10.891515869140624,0.16126023701429365,0.025456805078685283,-0.22970658125281332
1683588380808523000,10.90152294921875,0.1292740301668644,-0.028466216027736663,-0.15061375531554222
1683588380818529800,10.91152978515625,0.16252985509131102,-0.036163784793019293,-0.07667056722640991
1683588380828537900,10.921537841796875,0.16990761731769888,-0.033410102170705794,-0.10893734458088875
1683588380838545000,10.931544921875,0.1275998864095658,0.030004385380446908,-0.2489180622011423
1683588380848552000,10.941552001953125,0.09221534236073493,0.16243161888122556,-0.386574720788002
1683588380858559000,10.95155908203125,0.09012624286068603,0.23250761014819143,-0.5245207177102565
1683588380868567000,10.961567138671874,0.1699344870583154,0.2060816677764058,-0.5916127247303724
1683588380878573800,10.97157373046875,0.2644845011780038,0.11263006161898374,-0.5742272901654243
1683588380888581000,10.9815810546875,0.20460487322211265,-0.007494447408616542,-0.5258183563053608
1683588380898589000,10.9915888671875,0.1295335761521943,-0.14402385553121566,-0.43871173526048657
1683588380908596000,11.001595947265624,0.07205284429788589,-0.2035042185038328,-0.3978232600331306
1683588380918603000,11.01160302734375,0.09285831643939017,-0.14227321247160435,-0.41649347371160983
1683588380928609800,11.02160986328125,0.08876668147789314,-0.04688099364042282,-0.4803162498027086
1683588380938617900,11.031617919921874,0.10699555373019538,0.05481441698819398,-0.538201452538371
1683588380948625000,11.041625,0.14986322007603012,0.18145400699824094,-0.5601473268866539
1683588380958632000,11.0516318359375,0.23751345561146736,0.3101277331843972,-0.6257885505765676
1683588380968639700,11.0616396484375,0.359037894564867,0.1807408902928233,-0.7571580917179584
1683588380978647000,11.07164697265625,0.39590602823495863,0.0317541516572237,-0.9762170222282409
1683588380988653800,11.08165380859375,0.3100865243911743,-0.11392331629991531,-1.0173767156124114
1683588380998661000,11.0916611328125,0.24086744221448897,-0.1176139875113964,-0.8471189331501722
1683588381008669000,11.1016689453125,0.23112463135719297,-0.0349500250890851,-0.5238204604864121
1683588381018676000,11.111676025390626,0.28494039269685745,0.19280454531311988,0.012166823133826256
1683588381028683000,11.12168310546875,0.3786462658762932,0.5168424381673336,0.6388005923628807
1683588381038689800,11.131689697265625,0.46096565264463424,0.7388713243991136,1.0625205101966857
1683588381048697900,11.14169775390625,0.5522948598206043,0.8266232576102018,1.0903601187586784
1683588381058705000,11.151704833984375,0.6169155082911253,0.7258131053835153,0.7158411619454622
1683588381068712000,11.1617119140625,0.519172926941514,0.5474830756247043,0.15671908645331858
1683588381078719700,11.1717197265625,0.25960138704525304,0.33821313320100305,-0.3120323977619409
1683588381088727000,11.18172705078125,-0.035652912661433216,0.1421101308643818,-0.5607599058270454
1683588381098733800,11.19173388671875,-0.3342593906065449,-0.00744447078704834,-0.6273293502777815
1683588381108741000,11.2017412109375,-0.5325584416827187,-0.09582827216088771,-0.47928573771119115
1683588381118749000,11.2117490234375,-0.5062228444755077,-0.06659457889199256,-0.17066227160990238
1683588381128756000,11.221755859375,-0.3565753038436174,0.06306348215639591,0.13285130413174628
1683588381138763000,11.231762939453125,-0.09144782858695834,0.2442079848140478,0.323272753700614
1683588381148771000,11.24177099609375,0.18950491924583912,0.3836328221172094,0.3425076155245304
1683588381158777900,11.25177783203125,0.3694178342819214,0.40006548600196834,0.20035130743086338
1683588381168785000,11.261784912109375,0.4818068171540275,0.3455734328359365,0.0639437721222639
1683588381178792000,11.2717919921875,0.5017641115009784,0.23743396063446998,-0.05513502724468708
1683588381188799700,11.2817998046875,0.4303028764206916,0.12240122178792953,-0.15761983468532562
1683588381198807000,11.29180712890625,0.36348026092648505,0.02870587000250816,-0.2651613409936428
1683588381208813800,11.301813720703125,0.30863756769187745,-0.056853521600365636,-0.4902016840010881
1683588381218820900,11.31182080078125,0.2492226711709052,-0.16038871487677098,-0.6442091734081506
1683588381228829000,11.321828857421876,0.1754232754666358,-0.17096388490498066,-0.7259142276704311
1683588381238835700,11.331835693359375,0.07749715424366295,-0.13708382713496683,-0.7027420263975859
1683588381248843000,11.341843017578125,-0.04241232379376888,-0.08637479963898659,-0.5836906995594501
1683588381258850800,11.351850830078124,-0.13618717055618762,-0.08728548474311829,-0.5187579163998365
1683588381268857900,11.36185791015625,-0.25737660540156065,-0.12868541662395,-0.5135106633961201
1683588381278865000,11.371864990234375,-0.3918341756861657,-0.19073475330173967,-0.4643383439481258
1683588381288872000,11.381871826171874,-0.5342148671202361,-0.29657705447673793,-0.33382980355024333
1683588381298879700,11.391879638671876,-0.6766997495811432,-0.37748482088148594,-0.07320084528923035
1683588381308887000,11.401886962890625,-0.7367652920305728,-0.39885903282165525,0.2692921571880579
1683588381318893800,11.411893798828125,-0.5202865142066031,-0.43952831234037876,0.8006587952703237
1683588381328900900,11.42190087890625,-0.1361000037293881,-0.45963995699882504,1.2270388722240924
1683588381338909000,11.431908935546875,0.14493446757011114,-0.43870062934458254,1.1944085222542284
1683588381348915700,11.441915771484375,0.22934015909321606,-0.397052275660634,0.5348123946219683
1683588381358923000,11.451923095703124,0.21556239363141358,-0.30459026506245135,-0.15382745666503905
1683588381368930800,11.461930908203126,0.08454173899292945,-0.11531623196303843,-0.5296323616355657
1683588381378937900,11.471937744140625,-0.1778021334271878,0.059274611267447465,-0.38531215350627895
1683588381388945000,11.48194482421875,-0.5012205061435699,0.08314005550146103,0.34739012686908244
1683588381398952000,11.491951904296876,-0.6731786627829075,-0.09950900650024413,1.0690554649233817
1683588381408959700,11.501959716796875,-0.6737824738949537,-0.36106209386885163,1.360259009668231
1683588381418967000,11.511967041015625,-0.47719892149977383,-0.7174608721017837,1.0844716452419758
1683588381428973800,11.521973876953124,-0.1760064821820706,-0.9272820186674594,0.20767945836186408
1683588381438980900,11.53198095703125,0.050427945532277224,-0.7718126400142907,-0.619215601927042
1683588381448989000,11.541989013671875,0.12052147245593368,-0.34218671300709247,-0.9911603243380784
1683588381458995700,11.55199560546875,0.030469445608928798,0.10785714812874793,-0.7939858933776617
1683588381469003000,11.5620029296875,-0.24700375301241873,0.39161271495521066,-0.054286885982751845
1683588381479010800,11.5720107421875,-0.532839633244276,0.5317722962737084,0.8912351382523774
1683588381489017900,11.582017822265625,-0.5870680670380592,1.0310375766962767,1.7158698523938656
1683588381499025000,11.59202490234375,-0.24874204804711042,0.7873539080172777,1.8752122730880976
1683588381509031700,11.60203173828125,0.2533903122443706,0.12711071465313434,1.4481617495268582
1683588381519039700,11.612039794921875,0.7068839485079049,-0.6413169590979814,0.5483855774223804
1683588381529046800,11.622046875,0.8818150565434246,-0.7878706253677606,-0.2612456288546324
1683588381539053800,11.6320537109375,0.5937305936671793,-0.4651531674623489,-0.7669125930130481
1683588381549060900,11.642060791015625,-0.07936638218164443,-0.023404256463050842,-0.6998346145182848
1683588381559069000,11.65206884765625,-0.8014578366935252,0.3289215732425451,0.17962649931013583
1683588381569075700,11.66207568359375,-1.2340665789037941,0.47795361232459543,1.3549018665492534
1683588381579083000,11.6720830078125,-1.1711794762276113,0.2568734051197767,1.9811814155131577
1683588381589089800,11.68208984375,-0.6792744954399764,-0.19973872849047183,1.7821704167753456
1683588381599097900,11.692097900390625,-0.07535831558406353,-0.47620647639632224,0.9109966542989015
1683588381609105000,11.70210498046875,0.29806524720788,-0.4429261380851269,-0.05294365468025207
1683588381619111700,11.712111572265625,0.3601940788626671,-0.2654571090698242,-0.6572609626829624
1683588381629120000,11.7221201171875,0.03433934584483504,-0.048887072765827176,-0.5847551139205693
1683588381639126800,11.732126708984374,-0.47508762843422586,0.13910627287328242,0.196368375274539
1683588381649133800,11.7421337890625,-0.7982458158444613,0.1896703389406204,1.0113286676198243
1683588381659140900,11.752140869140625,-0.6991424675356597,0.08808686425387859,1.3068851468771696
1683588381669149000,11.76214892578125,-0.36163901697397227,-0.02108896525800228,1.0114204375565052
1683588381679155700,11.77215576171875,-0.043335210792347784,-0.1934919430553913,0.3142600106835365
1683588381689163000,11.7821630859375,0.2073468654066324,-0.36317397145628927,-0.4692810610473156
1683588381699169800,11.792169677734375,0.34968306011185046,-0.4238876756161451,-0.9860989492952823
1683588381709177900,11.802177734375,0.2560522979952395,0.09196692055761814,-0.783755591264367
1683588381719185000,11.812184814453126,-0.08277516771182418,0.03925356750190258,-0.6485960101902485
1683588381729191700,11.822191650390625,-0.3616343407988548,0.3543143731743097,-0.240242588314414
1683588381739200000,11.832199951171875,-0.4083120669521391,0.3484861054122448,0.06723053870797156
1683588381749206800,11.842206787109374,-0.10703640633039176,0.13834171824157238,-0.0027250410497188567
1683588381759213800,11.8522138671875,0.30211072320640087,-0.0681359631150961,-0.30280922686457634
1683588381769220900,11.862220947265625,0.603624065041542,-0.22719430617094039,-0.7350245858430862
1683588381779229000,11.87222900390625,0.685453037944436,-0.2588555188477039,-0.9209516466021537
1683588381789235700,11.882235595703126,0.4775912087529897,-0.17266718169152737,-0.8136275824368
1683588381799243000,11.892242919921875,0.07521985696144401,-0.09434066395163536,-0.3547212004095316
1683588381809249800,11.902249755859375,-0.29381394643895326,-0.04430149854123592,0.33626550626456736
1683588381819257900,11.9122578125,-0.3739034552633762,-0.004435936620831489,0.9474795880436897
1683588381829265000,11.922264892578125,-0.06512611377462744,-0.0017693477600812912,1.2199766787528992
1683588381839271700,11.932271728515625,0.41563481105566025,-0.04991641581356525,1.1126467693686484
1683588381849280000,11.942280029296874,0.6904150442659854,0.008345803540945053,0.9489064059764146
1683588381859286800,11.952286865234376,0.7002122887242584,-0.09681026893556118,0.5190180286407471
1683588381869293800,11.9622939453125,0.4758827973999083,-0.22892916713953018,0.11578268043100833
1683588381879300900,11.97230078125,0.14206512267887592,-0.03591360942423343,-0.002977554506063461
1683588381889309000,11.982308837890624,-0.054427317366749044,0.3324211057960987,0.14909049127101898
1683588381899315700,11.992315673828125,-0.001402706404775381,0.66992872107625,0.3737643390536308
1683588381909323000,12.002322998046875,0.22311909262128174,0.8312725447207688,0.3836638017773628
1683588381919329800,12.012329833984374,0.39959026970565314,0.8368155658006667,0.19670856701433656
1683588381929337900,12.022337890625,0.4666255781024694,0.7928641958713532,-0.07843465428948401
1683588381939345000,12.032344970703125,0.4108471383877098,0.7426081728398799,-0.3074725425004959
1683588381949351700,12.0423515625,0.16787921676263212,0.5867191074699163,-0.4155927254796028
1683588381959359000,12.05235888671875,-0.13809388096034525,0.3875649008691311,-0.42710605314075945
1683588381969366800,12.06236669921875,-0.37336905612573024,0.24041852940320968,-0.2388309679508209
1683588381979373800,12.072373779296875,-0.46067207652553915,0.19743688128888606,-0.0839735837161541
1683588381989380900,12.082380859375,-0.35975524905398487,0.12282616920173167,-0.2376198385953903
1683588381999388000,12.092387939453126,-0.18725845549330114,0.0396013580262661,-0.49065585750937457
1683588382009395700,12.102395751953125,-0.04724149751588702,0.018147651109099387,-0.5708166049391031
1683588382019403000,12.112403076171875,-0.05833543072119355,0.039730537363886834,-0.4530307679921388
1683588382029409800,12.122409912109376,-0.19355638659372926,0.042779988062381744,-0.2402688917994499
1683588382039417900,12.13241796875,-0.3369780384480953,0.062449734172225,-0.032631519013643265
1683588382049425000,12.1424248046875,-0.3509703234434128,0.06570610561966896,0.03291501213014126
1683588382059431700,12.152431640625,-0.1843329234354198,0.001748304972052574,-0.09511749354302883
1683588382069439000,12.16243896484375,0.04935359429903328,-0.07001929264366627,-0.34977205356955526
1683588382079446800,12.17244677734375,0.1894676559753716,-0.06935352221131325,-0.6069353815466165
1683588382089453800,12.182453857421875,0.16241357176788151,-0.05836392616331577,-0.7870446959376335
1683588382099460900,12.1924609375,0.012756167329102754,-0.03285714446306229,-0.7644710450798272
1683588382109468000,12.202468017578125,-0.1530142405860126,-0.008660860839486122,-0.48309974304139613
1683588382119476000,12.21247607421875,-0.18478022881150244,-0.01918459294140339,-0.0340022228449583
1683588382129483000,12.22248291015625,-0.08556932847499847,-0.04916530518531799,0.3062742726266384
1683588382139489800,12.23248974609375,0.16455460238456726,-0.172255678281188,0.3162380327582359
1683588382149496800,12.242496826171875,0.40768253687694667,-0.19250527010560034,0.00397884050309658
1683588382159505000,12.2525048828125,0.4911036012768745,-0.11363222439885139,-0.42304888670444485
1683588382169511700,12.26251171875,0.38697088049873707,0.0688981796592474,-0.6663111151009797
1683588382179519000,12.27251904296875,0.17035773570537566,0.288645092433691,-0.5746528221011161
1683588382189525800,12.28252587890625,-0.062356210669875144,0.4163116874039173,-0.17384791590869425
1683588382199533800,12.292533935546874,-0.2308797166854143,0.41721185111403464,0.35269992371499537
1683588382209540900,12.302540771484376,-0.23795688853003083,0.3589209901869297,0.7493377733558416
1683588382219548000,12.3125478515625,-0.0855107301555574,0.26006547915935513,0.9093985714524984
1683588382229556000,12.322555908203125,0.16289119921699166,0.12728665574193,0.8078542597323656
1683588382239563000,12.33256298828125,0.3793874396324157,0.016527356430888176,0.5064578222751617
1683588382249569800,12.34256982421875,0.4307225631374865,-0.016088965013623238,0.09443418745398521
1683588382259576800,12.352576904296875,0.2190333576776087,0.025732407149672506,-0.2325309910237789
1683588382269585000,12.3625849609375,-0.11731989993564784,0.1653670878112316,-0.26113223160803317
1683588382279591700,12.372591796875,-0.38319282326474785,0.34835634155273437,-0.0032499417066574094
1683588382289599000,12.382598876953125,-0.5028175660766661,0.4496756123453378,0.37389761004447936
1683588382299605800,12.392605712890624,-0.47651042777895924,0.45146191124022006,0.616173750013113
1683588382309613800,12.40261376953125,-0.29892960895225407,0.40343057852089403,0.7144155130565166
1683588382319620900,12.412620849609375,-0.056223407003283495,0.35867081481814383,0.5976888297736644
1683588382329628000,12.4226279296875,0.09539338787496089,0.24841128172278404,0.1846077948540449
1683588382339635000,12.432635009765624,0.127809291376546,0.161524440908432,-0.2633656897485256
1683588382349643000,12.44264306640625,0.09504450137205421,0.20498305888473986,-0.4264601564526558
1683588382359649800,12.45264990234375,0.014435937109589576,0.35032033510208127,-0.3413029159098863
1683588382369656800,12.46265673828125,-0.045237683412805194,0.43603813213706016,-0.14952654460072518
1683588382379664000,12.472663818359376,-0.027553119770810007,0.47034489088654513,0.1008569139778614
1683588382389671700,12.482671630859375,0.0939129400588572,0.4604471817284822,0.26189970884919167
