time,seconds_elapsed,z,y,x
1684107920249627600,0.029627685546875,-1.9938813226103782,1.2311645738519728,3.0676150084778664
1684107920259644700,0.039644775390625,-2.26715699647665,1.175971094418317,3.2557270120605826
1684107920269662700,0.049662841796875,-3.0266829863697287,1.3838853844493626,3.6039404380112883
1684107920279680800,0.0596806640625,-3.4846377667605877,2.7003181118726727,3.1601205659568308
1684107920289697500,0.069697509765625,-2.842687185934186,4.380641142328083,3.7083340016826987
1684107920299715800,0.0797158203125,-0.6804694043129682,4.832233109688759,3.843407950299978
1684107920309733600,0.089733642578125,2.598535315221548,4.31346058024168,2.369018119060993
1684107920319751700,0.099751708984375,5.877446511253714,1.9813290072903036,1.2820717542685567
1684107920329768700,0.109768798828125,7.478639598631858,-1.0406240279480814,0.14785364295244216
1684107920339786800,0.119786865234375,7.220372108805179,-8.594076875501871,-5.294769372650981
1684107920349804500,0.129804443359375,5.948895544439554,-9.538165067541598,-8.511730016204714
1684107920359821600,0.139821533203125,2.7742899415344,-0.22962007201313972,-7.342595051416755
1684107920369839600,0.149839599609375,0.3128045511782169,3.891830912685394,-6.4114107646137475
1684107920379857700,0.159857666015625,0.08115560368597508,2.3431530254423616,-5.949266131317615
1684107920389874700,0.169874755859375,1.2113573189675808,0.08335954347103834,-4.778227963256835
1684107920399892500,0.179892578125,2.5940263133645054,0.277792566768825,-3.7063632861316202
1684107920409910800,0.189910888671875,3.08382409273982,0.9235001620411872,-3.1332214531153437
1684107920419927600,0.199927490234375,3.0256407838404176,0.8903548482865095,-2.155482920408249
1684107920429945600,0.209945556640625,2.9658430254817008,0.537412640248239,-0.8848616576977074
1684107920439963600,0.219963623046875,2.327590714651346,0.1432072784513235,0.2573963330153376
1684107920449981700,0.229981689453125,0.962141735124588,-0.4436857242807746,1.0254247052505612
1684107920459998700,0.239998779296875,-0.2783370489090681,-0.7606023869529366,1.17951826550588
1684107920470016800,0.250016845703125,-0.5409522125512362,-0.33973727402836085,1.45030767551437
1684107920480034600,0.26003466796875,-0.1556599327892065,0.2567687757015228,2.0793303857065735
1684107920490051800,0.2700517578125,-0.0050362406015396115,0.05533931764513254,1.9912693865463136
1684107920500069600,0.280069580078125,-0.32401801910996436,-1.1857178507983683,0.37651977524161334
1684107920510087700,0.290087646484375,0.8960001606971025,-0.6546826366275549,0.8957328880630433
1684107920520104700,0.300104736328125,2.4127216517090795,0.16102350564897058,1.6690684998609124
1684107920530122800,0.310122802734375,3.7446401175558566,0.569039366133511,3.251874720546603
1684107920540140500,0.320140625,4.640053418275714,1.218566811954975,3.6091760005772113
1684107920550158800,0.330158935546875,3.1195734515130518,-1.1552543234735726,-0.06048764031901955
1684107920560175600,0.340175537109375,2.327398991471529,-0.8622899065360426,-0.248014099098742
1684107920570193700,0.350193603515625,1.1099334187567234,0.4900558457896113,-0.08229542137086392
1684107920580211700,0.360211669921875,0.328007965528965,0.8616410872384905,-0.017706483212858438
1684107920590228500,0.370228515625,0.1511672975450754,0.845425865496695,-0.3839353121951222
1684107920600246800,0.380246826171875,0.38500469499230383,0.8155790087655186,-0.790693573834002
1684107920610264800,0.390264892578125,1.0779688392192124,0.8094882906749844,-1.0634010924234987
1684107920620281600,0.400281494140625,2.088223155605793,0.9184437554344534,-1.1709240401618182
1684107920630299600,0.410299560546875,3.1100153495728966,0.8592159059181809,-1.1867029163129628
1684107920640317700,0.420317626953125,3.883587400475144,0.915548033992946,-1.3901836078107357
1684107920650335700,0.430335693359375,4.379966896328329,1.075834457539022,-1.4681398309335112
1684107920660353300,0.440353271484375,5.1501837915837765,1.2275411226578057,-1.2265519654899835
1684107920670371300,0.450371337890625,6.208071381282806,1.2917830009438096,-0.7703758852094411
1684107920680389000,0.46038916015625,8.841990729096532,1.015871717876941,-1.364734693777561
1684107920690406400,0.470406494140625,10.46413658813238,0.478269546405971,-4.338350983609259
1684107920700424200,0.480424072265625,11.679077026283741,1.8952951300434766,-2.8093302752554417
1684107920710442200,0.490442138671875,13.015125723803042,2.3918347848944363,-1.223412206159532
1684107920720459300,0.500459228515625,13.971490044569968,2.728332200218737,-1.8508970392599702
1684107920730477300,0.510477294921875,12.565761661624908,5.2559647179603575,-2.914334372040629
1684107920740495000,0.5204951171875,6.002786709102988,7.562530180239677,-2.774384634080529
1684107920750512000,0.53051220703125,-2.650650702384114,7.148729598873853,-2.6199872685730456
1684107920760530200,0.5405302734375,-6.8018544357895845,6.769297735577822,-4.404115249156952
1684107920770548200,0.55054833984375,-5.699278978580236,7.681931051167846,-6.9275389170318835
1684107920780566300,0.560566162109375,-2.9248414452686906,8.383376023492216,-8.379885843288898
1684107920790583000,0.5705830078125,-0.678197221597284,8.27409907169342,-8.928014815601706
1684107920800601300,0.580601318359375,0.7308938427139073,8.646715994277596,-8.658063317722082
1684107920810619100,0.590619140625,0.9934341144889592,9.251189954146742,-6.902859818327427
1684107920820636200,0.60063623046875,-0.5379823298949747,10.104131894361972,-4.4692438471496105
1684107920830654200,0.610654296875,-2.971530423468351,11.204455773252247,-2.011860046893358
1684107920840672300,0.62067236328125,-4.944372465181351,12.18390052535534,1.9830518855601549
1684107920850690000,0.63068994140625,-6.015299569195508,11.301204667389392,8.299618128353357
1684107920860707300,0.640707275390625,-5.635556740254163,8.9293866884768,14.975296499991416
1684107920870725000,0.65072509765625,-3.7865304633021353,6.652109280002117,18.406870200562476
1684107920880743200,0.6607431640625,-1.1999720016002655,5.523070178759098,18.724691118597985
1684107920890760200,0.67076025390625,1.1821551898807288,4.784966039340198,16.756809329640863
1684107920900778200,0.6807783203125,2.9061019657462834,4.59744411060512,12.920821300208567
1684107920910796300,0.69079638671875,4.7097290120482445,4.507947379553317,8.236500870183109
1684107920920813300,0.700813232421875,6.558222205036878,4.580583576697111,4.350034114879369
1684107920930831000,0.7108310546875,6.804044054788351,5.2740270288735625,4.613059612888097
1684107920940849400,0.720849365234375,5.046645091176033,4.706354567179083,8.572090669143199
1684107920950867200,0.7308671875,3.1357828280359503,2.3752999758094546,13.086769402778147
1684107920960884200,0.74088427734375,1.8540759615570306,0.3112006231129169,15.299581061083078
1684107920970902300,0.75090234375,2.0102157868176698,0.1506494111508131,15.59654039287567
1684107920980920300,0.76092041015625,11.403376755619048,-0.53130292519629,20.14989343281984
1684107920990937300,0.770937255859375,30.4584957603693,-5.525365011698007,20.79735663958788
1684107921000955100,0.780955078125,30.271282751452922,-4.84495113696456,9.826830033719538
1684107921010973200,0.79097314453125,12.275622531241178,-1.9919769502937792,5.052632933413982
1684107921020990200,0.800990234375,-0.4798222557406872,-1.6953490424126385,6.894388342580199
1684107921031008300,0.81100830078125,-4.982814131778478,0.2550602182179689,7.836846303069591
1684107921041026000,0.821026123046875,-5.123566418293118,2.4750205792337656,8.569499483606219
1684107921051044400,0.83104443359375,-2.08233468208909,2.002953102338314,5.396571458524465
1684107921061061000,0.84106103515625,-0.25217487204000355,1.7091273923963308,3.7046383620351553
1684107921071079200,0.8510791015625,-0.7942647103190421,2.1540882511794566,5.778692122513055
1684107921081097200,0.86109716796875,-0.2737450449436903,0.8588099554657935,3.907745105654001
1684107921091114200,0.8711142578125,0.13123276301920414,0.46957536781877274,3.48394277023375
1684107921101132000,0.881132080078125,-0.16194003597199916,0.26511574828624723,2.9704800376325844
1684107921111150300,0.891150390625,-0.6640273880779742,-0.3513154836192727,2.510009475028515
1684107921121167000,0.9011669921875,-1.05554687179178,-0.5993795593395829,0.9335276350587606
1684107921131185400,0.911185302734375,-1.6565929030388593,-0.8040984143301844,-1.3774796090602874
1684107921141203200,0.921203125,-2.2700749297499656,-1.1597592336773872,-4.475493555194139
1684107921151221200,0.93122119140625,-2.0672223070226607,-1.0479700067967175,-6.717233201819658
1684107921161238300,0.94123828125,-1.7499753894828258,-0.6919403541371226,-6.490647382935881
1684107921171256300,0.95125634765625,-0.9017468876555561,-1.0943903971880673,-6.194247438591718
1684107921181274000,0.961274169921875,0.7752398379839956,-1.4848986580327153,-8.59653946622312
1684107921191291400,0.97129150390625,2.475327745486796,-1.2280173618674277,-10.163455020946264
1684107921201309200,0.98130908203125,3.5766923656016587,-0.7394912098631262,-9.511990177321433
1684107921211327200,0.9913271484375,3.9705601660072802,-0.5478387571945786,-8.282953993800282
1684107921221344300,1.00134423828125,3.605034078466892,-0.8296876136168837,-7.218613866961002
1684107921231362000,1.011362060546875,3.333983679434657,-1.4215532901950179,-6.645341101041436
1684107921241380000,1.021380126953125,2.916816836506128,-2.391781008880585,-5.981815817266702
1684107921251397000,1.031397216796875,2.769728332707286,-3.0511452274531123,-5.441500149053335
1684107921261415200,1.041415283203125,2.99186126383543,-1.7206401355355978,-4.701378532332182
1684107921271433200,1.05143310546875,5.907013381999731,0.37596126457601786,-2.933720040512085
1684107921281451300,1.061451171875,6.823938841825723,3.337217254528403,-3.285966959762573
1684107921291468000,1.071468017578125,4.055896854770183,4.822646366176009,-6.373055607256293
1684107921301486300,1.081486328125,-0.20782719626948237,3.6030303374290464,-4.029284157654643
1684107921311504100,1.091504150390625,-0.5045434400212019,0.13264058399051426,-7.032181779289245
1684107921321521400,1.101521484375,2.6180197678923607,4.680129992598295,0.7566735230714082
1684107921331539200,1.111539306640625,-12.050019293653964,4.142263763363659,15.015662412649393
1684107921341557200,1.12155712890625,-15.794669932603835,-1.1801584631055593,8.73917449774444
1684107921351575000,1.131574951171875,-15.285376010119915,1.7560083860367535,10.324424166059494
1684107921361592300,1.14159228515625,-10.674888293546438,0.5382599047273398,8.469342826852202
1684107921371610000,1.151610107421875,-5.582090523004531,1.3208423605591058,6.567437777149677
1684107921381628200,1.161628173828125,-2.6560926011770962,2.003700705835223,5.713551834082603
1684107921391645200,1.171645263671875,-1.435095931726694,1.8314128788501023,5.600141728001833
1684107921401663200,1.181663330078125,-0.19859776002811266,2.1836972075015306,6.81068480797708
1684107921411681300,1.191681396484375,-0.20894089313242584,3.373271733728051,6.934130570381879
1684107921421698300,1.2016982421875,-0.12703118314351886,4.277972502753138,6.170676593390107
1684107921431716000,1.211716064453125,0.4910515057634562,5.2000920240908854,5.398210457903146
1684107921441734400,1.221734375,0.6602817718088626,5.931448150554299,3.5829105094641447
1684107921451752200,1.231752197265625,0.1980095666103065,5.618858118909597,4.814758243274689
1684107921461769200,1.241769287109375,2.3966548985272644,4.911310738056898,6.654699296495318
1684107921471787300,1.251787353515625,5.3570834977447985,4.831638943187892,5.542779672357439
1684107921481805300,1.261805419921875,6.293534326773882,4.613663424000144,2.0545587864130734
1684107921491822300,1.271822265625,5.475412940049171,3.185422472734749,0.4875912092417478
1684107921501840100,1.281840087890625,5.337243071243167,1.6690245145887135,-1.52145319570899
1684107921511858200,1.291858154296875,5.911795355579256,0.8815466879308224,-6.186104464146495
1684107921521875200,1.301875244140625,5.329318707984686,0.01855447834432125,-7.1053726877063506
1684107921531893200,1.311893310546875,2.7361095562219617,-0.8614511176243423,-6.28603958710432
1684107921541911000,1.3219111328125,-1.4284252217911182,-2.2841446638956664,-8.259903373080492
1684107921551929300,1.331929443359375,-2.7622072895526886,-1.1314509846903382,-9.81065865111947
1684107921561946000,1.341946044921875,-3.0700027803972363,-1.2211227800481022,-4.640243972411752
1684107921571964200,1.351964111328125,-2.488781393560767,-3.9269571711242195,-2.1861907778829335
1684107921581982200,1.361982177734375,-1.4384059330575167,-4.663807803350687,-1.5648773268938063
1684107921591999200,1.371999267578125,-0.3679370942048728,-4.5900142528653145,-1.1737333984941243
1684107921602017300,1.382017333984375,-0.22620982517823576,-4.282833386787772,-1.8780559720814227
1684107921612035300,1.392035400390625,-0.7986315272264182,-2.2237781657382842,-6.819373725867271
1684107921622052000,1.402052001953125,-1.464227333664894,-0.5416338381398469,-7.004442123970389
1684107921632070400,1.4120703125,-2.6027918036222455,1.0016874174408614,-4.714944116348028
1684107921642088200,1.422088134765625,-3.1542747625380754,3.280534705580771,-6.462672749817371
1684107921652106200,1.432106201171875,-4.840407648316026,4.256514704182743,-7.022105206432938
1684107921662123300,1.442123291015625,-4.524682241255045,3.6383649779215452,-4.6988487215936185
1684107921672141300,1.452141357421875,-1.558773749321699,3.8721912694528697,-3.9813539472222326
1684107921682159000,1.4621591796875,1.1453916125636547,2.9766175174742937,-3.0089386553645134
1684107921692176100,1.472176025390625,2.2117723783850667,1.357308050908148,0.3288251271307468
1684107921702194200,1.482194091796875,3.657159402501583,-0.26829876223653554,2.7262404886364937
1684107921712212200,1.492212158203125,4.122755637556314,2.5075556521356104,1.400761115926504
1684107921722229200,1.502229248046875,-0.41363223906159396,0.08422112873643636,6.435376162090897
1684107921732247000,1.5122470703125,-0.17282323076976464,-2.2330507287353276,6.842377584835886
1684107921742265300,1.522265380859375,-0.23488486067354677,-5.970343990659713,0.6943699193716049
1684107921752282000,1.5322822265625,-7.228005964684486,-5.291410125350952,-4.975877610513567
1684107921762300200,1.542300048828125,-14.779653516381979,1.8745877114489673,-1.1206342609912157
1684107921772318200,1.552318115234375,-9.880658654540776,5.825347490704059,5.905152264302969
1684107921782336300,1.562336181640625,-3.5763048275887965,5.771347020447254,7.868391780412197
1684107921792353300,1.572353271484375,1.4920014757752418,5.0092029570102685,5.576842685478925
1684107921802371300,1.582371337890625,6.658453680592775,3.590345627900958,1.361879304346442
1684107921812389000,1.59238916015625,9.090333621758223,1.4620853532001374,-2.5059160682350394
1684107921822406400,1.602406494140625,8.537197050416468,1.1227435082301498,-3.735284260189533
1684107921832424200,1.612424072265625,4.87986346039176,2.4274445890665053,-3.4233278502732514
1684107921842442200,1.622442138671875,1.0279939712166786,3.7680698007211086,-2.406710428595543
1684107921852459300,1.632459228515625,-0.9462754729509353,3.5718586618348955,-0.9637918404191732
1684107921862477300,1.642477294921875,-3.9127848533868788,2.0923808598071334,-2.888783751198649
1684107921872495000,1.6524951171875,-4.40102195931673,0.9421595620647072,0.38329906011819836
1684107921882513400,1.662513427734375,-0.13255085988044737,0.6001575579747557,3.415976902988553
1684107921892530200,1.6725302734375,2.8658535419881344,-0.742497990463674,2.8986756151378152
1684107921902548200,1.68254833984375,5.506237117379904,-1.5520157994940875,2.5080454814791677
1684107921912566300,1.692566162109375,7.595883583787083,3.641868017606437,-5.8019508330255745
1684107921922583000,1.7025830078125,5.369204728171229,-2.859022234663367,1.852012599286437
1684107921932601000,1.71260107421875,0.2749813087403774,-6.400754346042871,6.258931799948215
1684107921942619400,1.722619384765625,-1.681440928569436,-4.38590651551038,2.9398078359931707
1684107921952636200,1.73263623046875,-2.1271137350142,-1.9475041868388652,0.5685878229737281
1684107921962654200,1.742654296875,-0.3216676565915346,-1.3354089383110403,2.0551988378822803
1684107921972672300,1.75267236328125,0.4066518786549568,-0.6787886116191745,0.5687567497998476
1684107921982689000,1.76268896484375,0.17728665818572042,0.7624041756778955,-1.9664871197283267
1684107921992707300,1.772707275390625,0.76912851549685,0.366859674231708,-1.5327093337386846
1684107922002725000,1.78272509765625,1.619744643113017,-0.940777021665126,-2.22610836225152
1684107922012743200,1.7927431640625,2.7335850061804057,-2.438003830873221,-2.7785160347968336
1684107922022760200,1.80276025390625,1.9722090045064686,-1.9335908122986554,-2.1076053169459104
1684107922032778200,1.8127783203125,-0.0158902275711298,-0.3990456414349377,-0.41673663481771944
1684107922042796000,1.822796142578125,-0.5899006601154804,-1.1298101586807519,1.5059639501541853
1684107922052813300,1.832813232421875,-0.10408343827631324,-2.047696207167208,3.038675037458539
1684107922062831000,1.8428310546875,0.12921440893411634,-1.9979519330501556,3.608267653560638
1684107922072849200,1.85284912109375,-0.07352357443757354,-1.7980536300837993,3.9295091936945914
1684107922082866200,1.8628662109375,-0.20137604736872017,-1.3223065878927707,4.9501516331046815
1684107922092884200,1.87288427734375,0.42676995305418963,-0.21948599681593475,3.669834175157547
1684107922102902300,1.88290234375,3.097407212412357,1.868988722398132,2.1610803020238873
1684107922112920300,1.89292041015625,4.106105239267647,3.8261800443843006,-0.11453005002140998
1684107922122937000,1.90293701171875,1.824727409736812,4.094615000221133,-2.8268279380232095
1684107922132955400,1.912955322265625,-0.45880701330602164,5.024655962207913,-2.9180823263972995
1684107922142973200,1.92297314453125,-2.9478984957292673,4.506027517406642,-4.365333390820026
1684107922152990200,1.932990234375,-4.780419628082216,2.6023051891490816,-6.341703606659173
1684107922163008300,1.94300830078125,-4.429695096093416,0.9900427184849977,-5.633352508208155
1684107922173026300,1.9530263671875,-2.491748426672816,-0.1040514357028529,-2.885678770920634
1684107922183043300,1.963043212890625,-0.8381441840559244,-1.1583855341713876,-2.578810624054074
1684107922193061000,1.97306103515625,-0.5037298586159944,-1.8603325377337634,-4.028433678305149
1684107922203079200,1.9830791015625,0.3344990811139345,-1.3278165834859013,-3.7088749766916034
1684107922213096200,1.99309619140625,0.26681027724444867,-1.7779779335215686,-4.055430990824103
1684107922223114200,2.0031142578125,0.34668051729500293,-1.7867270571663976,-1.842991672962904
1684107922233132000,2.013132080078125,2.621124163648486,-2.551016608199477,1.514957403948903
1684107922243150300,2.023150390625,2.991053454583883,-4.060819405864179,5.557427206391096
1684107922253167000,2.0331669921875,-1.9146289221972226,-3.929287952159345,4.158285800620913
1684107922263185200,2.04318505859375,-5.738744727528095,-1.581633231383562,3.9970612194418904
1684107922273203200,2.053203125,-8.589950735482573,0.9526485151141881,1.2429881365060806
1684107922283220200,2.06322021484375,-17.34185261285305,4.351144121947884,-7.550937942123412
1684107922293238300,2.07323828125,-6.987000575304031,12.607837885332106,-2.4990286468088625
1684107922303256300,2.08325634765625,4.421101163010299,10.821253743767738,-0.27925474827587604
1684107922313273000,2.093273193359375,5.291372715950012,7.20147743872106,-5.728022842505574
1684107922323291400,2.10329150390625,-0.17172551692724228,5.136600671911239,-3.55069107838273
1684107922333309200,2.11330908203125,-1.7393293461754917,-0.017587094616889953,0.5051975930809974
1684107922343327200,2.1233271484375,-1.433743932595849,-0.7160919218361377,3.3566157824814318
1684107922353344300,2.13334423828125,-0.6622668081462383,0.9049328242152929,2.6491268538177013
1684107922363362300,2.1433623046875,2.9761718195334077,0.2618967862397432,1.7945593582272528
1684107922373380000,2.153380126953125,5.274980384075642,-0.1569452964246273,3.2813945372805
1684107922383397000,2.163397216796875,4.426576087290048,0.36009120301008224,4.47288132686913
1684107922393415200,2.173415283203125,4.710635020977258,-0.35808570840656756,3.9493768004640937
1684107922403433200,2.18343310546875,5.303467642891406,0.05773147347867488,3.230698953787982
1684107922413450200,2.1934501953125,3.4627485910356044,0.13501286607980728,2.0279881748735904
1684107922423468000,2.203468017578125,2.99100318570137,0.04081716355681419,0.28845424603670833
1684107922433486300,2.213486328125,3.8970857644736765,1.0755237841546534,-1.0657415180698036
1684107922443504400,2.22350439453125,3.649124564605951,1.3213532326906918,-2.3668214857995507
1684107922453521200,2.233521240234375,3.2867315143942832,1.4857617046028375,-2.7268413771390914
1684107922463539200,2.243539306640625,1.1496037503659724,2.7778952725499866,-1.9965651548668741
1684107922473557200,2.25355712890625,-0.5361585485339164,4.762267008537054,0.42445524637103077
1684107922483574300,2.26357421875,-1.7282757449805735,5.063725989836454,2.7619425011366605
1684107922493592300,2.27359228515625,-1.6381646814227102,4.174265460041165,5.2606432311654086
1684107922503610000,2.283610107421875,-0.14936989273428916,3.128836954420805,7.194926701903343
1684107922513627400,2.29362744140625,1.453121417760849,2.485687519198656,7.499594708377122
1684107922523645200,2.303645263671875,2.637624632072449,2.3591174872934815,7.1619573292374605
1684107922533663200,2.313663330078125,3.2104818029284474,2.448479778310656,6.662602616965771
1684107922543681000,2.323680908203125,2.4462556725203988,2.3885925881028176,6.121377432692051
1684107922553698300,2.3336982421875,1.2815198194742201,2.2306892603009936,6.034215866589546
1684107922563716000,2.343716064453125,0.3988631975401193,2.0413661273628474,5.535155753350257
1684107922573734400,2.353734375,0.5056592923086136,1.4388181671202183,3.606463819009065
1684107922583751200,2.363751220703125,1.3564676545612513,0.8335872514039278,1.369710728624463
1684107922593769200,2.373769287109375,2.2841911333858964,0.2872124292820692,-0.7882043873667717
1684107922603787300,2.383787353515625,2.975115296217799,-0.8649123639941215,-3.0469986291676756
1684107922613804000,2.393803955078125,3.843430162131786,-3.2712118737012146,-5.860345738849044
1684107922623822300,2.403822265625,8.554363289272784,-6.619045799311995,-10.846683953100442
1684107922633840400,2.41384033203125,6.536655100873112,-6.621379210695624,-11.527594671440124
1684107922643857200,2.423857177734375,3.0251614758908745,-5.998344927263259,-10.291983201181887
1684107922653875200,2.433875244140625,1.739289890947938,-5.8557964049816125,-7.33719523819983
1684107922663893500,2.4438935546875,-0.24415013541327787,-4.363742906758189,-7.206079964080453
1684107922673911300,2.453911376953125,-0.5685177168795839,-2.462018474319577,-5.841542254179716
1684107922683928600,2.463928466796875,-1.095765850259736,-0.09197159673273562,-4.524725495874882
1684107922693946400,2.4739462890625,-1.804292816734314,2.7628298053652047,-3.015837767228484
1684107922703964400,2.48396435546875,-1.9929998636007307,6.170265674501657,-0.9983505281031131
1684107922713981400,2.4939814453125,-1.6435691708147524,8.708951793438196,0.7980746239960194
1684107922723999500,2.50399951171875,-1.733511892068386,8.355615325385331,1.944069243954122
1684107922734017300,2.514017333984375,-2.4191081378757953,4.734979188638925,4.096302807177603
1684107922744034600,2.52403466796875,-1.4496622172176836,-0.3682973058193922,7.770521188768744
1684107922754052400,2.53405224609375,-1.035723688685894,-3.136470225778222,10.681644197547435
1684107922764070400,2.5440703125,0.7938672354340552,-4.182467471197247,11.919303832507133
1684107922774088400,2.55408837890625,5.322216767024994,-3.6249814724743366,11.302525686860085
1684107922784105500,2.56410546875,6.834764187222719,-0.3518786704599857,8.775180461627244
1684107922794123500,2.57412353515625,7.863736648082733,0.2053378636717796,3.8620495224058624
1684107922804141600,2.5841416015625,4.076573732095957,-0.7959545631021261,5.877055466109514
1684107922814158300,2.594158447265625,3.7622342264354227,-1.4588678524583578,1.416091663788259
1684107922824176400,2.60417626953125,1.9272516724050044,-1.6578227370947598,-0.4379766989842057
1684107922834194400,2.6141943359375,0.587515737740323,-1.759008152374625,-0.6324266734167933
1684107922844211500,2.62421142578125,0.04069441395998001,-1.7708423825532198,-0.45938744354248046
1684107922854229500,2.6342294921875,-5.586584327292442,-2.6695120547205207,-2.1839643340051174
1684107922864247300,2.644247314453125,-6.067082363402843,-2.9811832179546354,0.7378221076071262
1684107922874265300,2.654265380859375,-5.023723649793863,-1.5820920810669659,3.167641609111428
1684107922884282400,2.664282470703125,-2.5533061804413792,0.6949182009041309,2.4780174229621887
1684107922894300400,2.674300537109375,2.572120771026611,3.9011259797751903,-1.0207675270944834
1684107922904318200,2.684318115234375,5.437595542830229,6.460352782437205,-2.0940607757180927
1684107922914335500,2.69433544921875,3.791466166138649,7.030722812652588,-0.19451953253746032
1684107922924353300,2.704353271484375,2.464066054499149,5.889168513229489,0.37765374770760535
1684107922934371600,2.71437158203125,1.9358733702778814,4.538620750236511,-2.3738474389135837
1684107922944388400,2.724388427734375,5.140059872454405,2.803459921917319,-8.588720901426672
1684107922954406400,2.734406494140625,7.6495415242165326,1.305420335021615,-11.491878045892715
1684107922964424400,2.744424560546875,0.07917586457822472,0.8815589628905057,-4.55275975022614
1684107922974441500,2.75444140625,-0.28483342519104476,0.488622305855155,-4.90664449981153
1684107922984459500,2.76445947265625,-1.9695885928750037,-1.267646192422509,-5.162623586440086
1684107922994477600,2.7744775390625,-3.167630503195524,-1.3021651326179504,-2.2674849132567645
1684107923004495400,2.784495361328125,-2.4326070863962173,0.36788930954039095,0.9819090963900089
1684107923014512600,2.7945126953125,-0.8276888410151004,0.5046639245957136,1.8223323312938213
1684107923024530400,2.804530517578125,1.216834289073944,-0.7641261771649122,0.4895055184304714
1684107923034548500,2.814548583984375,2.367584286865592,-1.7159505164146422,0.10715630638301372
1684107923044565500,2.8245654296875,2.622558580365777,-2.344008765488863,0.5827578026235103
1684107923054583300,2.834583251953125,3.5960721888542175,-4.0839901458323,-0.4529840062409639
1684107923064601300,2.844601318359375,3.317503084754944,-5.2018368219316,-7.929667794629931
1684107923074618400,2.854618408203125,4.194638970506191,-3.857594881084561,-7.0289493732392785
1684107923084636400,2.864636474609375,6.442353599888086,-0.3453396240800619,4.534643078777194
1684107923094654200,2.874654296875,6.399875225120782,1.3308657419234513,7.077588608723879
1684107923104672500,2.884672607421875,3.708253629922867,0.6615104368209839,6.8774296089947216
1684107923114689300,2.894689208984375,-0.2542517513792962,0.46345513137280936,7.993439717316627
1684107923124707600,2.90470751953125,-3.4267291831493374,1.150910156789422,9.132997289964557
1684107923134725400,2.914725341796875,-3.6886288919985293,0.8275900568157434,10.680786119413375
1684107923144742400,2.924742431640625,-4.176026624494791,1.3624042050033807,11.815308035981655
1684107923154760400,2.934760498046875,-2.415702713346481,2.080814925175905,12.43339784874916
1684107923164778500,2.944778564453125,-0.30362985906507817,1.5518272911846638,11.791896765255927
1684107923174795300,2.954795166015625,0.5902151328921318,0.8362918341875076,10.777152736234664
1684107923184813600,2.9648134765625,0.9873808057993649,0.42713527923524375,8.54857067734599
1684107923194831400,2.974831298828125,1.8807611393868922,0.801626178997755,2.4571236880153418
1684107923204848600,2.9848486328125,2.8648201072871684,1.080222755625844,-4.025291288626193
1684107923214866400,2.994866455078125,3.3258792834341526,0.3235311123758554,-7.820445203366875
1684107923224884500,3.004884521484375,2.7675632636278866,0.8070411897838116,-9.932869318771361
1684107923234902300,3.01490234375,0.6900795287013054,0.564591446813941,-10.971037477999925
1684107923244919600,3.02491943359375,-1.8492348051361738,-0.19300328275561332,-11.05017823473215
1684107923254937300,3.034937255859375,-1.8863409853458404,-0.5731289735347033,-12.157585349881648
1684107923264955600,3.04495556640625,-1.2257348038882017,1.5374597431361674,-14.640863469851016
1684107923274972400,3.054972412109375,-0.6137590900868177,1.6820044076710938,-16.977337748181817
1684107923284990200,3.064990234375,-0.23910262449905276,-0.1802595365166664,-16.60648315909505
1684107923295008500,3.075008544921875,0.5183714743655174,0.2201566626191139,-13.392518774747847
1684107923305025300,3.085025390625,2.1886714887827634,0.9412468311339616,-12.235492765426635
1684107923315043300,3.095043212890625,3.3830735812962054,0.8479512923210859,-12.525396918010712
1684107923325061400,3.105061279296875,4.347107998299599,1.3994453571528196,-11.646701527857779
1684107923335079400,3.115079345703125,5.642931068414449,3.1215970662951467,-9.356780910909176
1684107923345096400,3.125096435546875,5.7396916529893875,5.395843728771806,-5.10989211320579
1684107923355114500,3.135114501953125,4.21561307721287,7.518571211525797,-1.7711229530602692
1684107923365132300,3.14513232421875,2.3485157215192913,9.313998584759235,0.7936886639967561
1684107923375149600,3.155149658203125,2.483370474427938,9.338789327144623,4.896238841131329
1684107923385167400,3.16516748046875,2.6091572470009323,8.625581436312197,7.135782439017295
1684107923395185400,3.175185302734375,4.844849430155754,8.220210829639434,9.5095889613986
1684107923405202400,3.185202392578125,6.9258502332925795,6.644538552486896,10.724483806842565
1684107923415220500,3.195220458984375,6.176213769251108,3.6684096953123806,9.11631678879857
1684107923425238300,3.20523828125,5.108814839363098,2.152698258125782,7.499712781798839
1684107923435256600,3.215256591796875,4.691764316290617,2.0589076292723414,7.3484759261488914
1684107923445273300,3.2252734375,3.384913656204939,2.9054473012298345,7.672664041128754
1684107923455291400,3.23529150390625,1.7114755629576741,2.8306320064812898,6.843942934456467
1684107923465309400,3.245309326171875,0.8798599038876592,1.8165116623163222,4.946236505487561
1684107923475326500,3.255326416015625,0.11664236600026488,0.6889262670129537,1.9215531685024498
1684107923485344500,3.265344482421875,0.052084553632885215,-0.6963163772642612,0.13151800970137117
1684107923495362600,3.275362548828125,0.19116313478164373,-2.2145260610073803,-1.457380828770995
1684107923505379300,3.28537939453125,0.13108823998197913,-3.1556226700156924,-3.0182746389865875
1684107923515397400,3.2953974609375,-0.2393852408327162,-3.5694980701833963,-3.742436470031738
1684107923525415400,3.30541552734375,-0.20118892729878424,-3.9835885744065043,-4.3951574511975045
1684107923535432400,3.315432373046875,-0.3308767989635467,-3.568205692285299,-4.0495764195770025
1684107923545450500,3.325450439453125,-0.08945055382251739,-3.1159166825711724,-3.3543817398190496
1684107923555468300,3.33546826171875,0.053311903470754624,-2.722052389296889,-2.678616567674279
1684107923565486300,3.345486328125,-0.0922164748718962,-2.482940266317129,-1.7990502399057149
1684107923575503400,3.35550341796875,-0.12766422035004943,-0.8305512447088956,-1.077557335808873
1684107923585521400,3.365521484375,-0.03493453525900841,3.8196108951270578,0.5190513463884592
1684107923595539500,3.37553955078125,0.48768648630976674,9.670153617364168,3.268973154863715
1684107923605556500,3.385556396484375,0.3639648295730352,12.834742268645762,5.950949554359912
1684107923615574300,3.39557421875,-0.5983593129137531,11.650699657583235,6.17742256051898
1684107923625592600,3.405592529296875,-3.1929210117965936,7.017156644114851,1.420261935210228
1684107923635609300,3.415609375,-1.5604536652326584,1.593733419021964,-2.7203917626082896
1684107923645627400,3.42562744140625,0.19636136101186275,-0.5774141035079956,-4.062230733966827
1684107923655645400,3.4356455078125,0.721871089759469,-3.7302006733149287,-4.244219286233187
1684107923665663200,3.445663330078125,2.006151606118679,-7.58497932793498,-4.236327071678638
1684107923675680300,3.45568017578125,2.91908828856945,-8.26755242652893,-4.023814201810956
1684107923685698300,3.4656982421875,1.5456291671968996,-7.326938632601499,-4.005332788702845
1684107923695716000,3.475716064453125,-0.3939829512178898,-7.186667992123961,-4.515527459418774
1684107923705733000,3.485733154296875,-1.7305962968826294,-7.168409281855821,-3.827090437227487
1684107923715751200,3.495751220703125,-0.5966814062967896,-6.698931236931681,-2.1080016227871177
1684107923725769200,3.505769287109375,2.8057226061522957,-3.9191783538162706,1.2422142295241356
1684107923735786200,3.5157861328125,0.8212322122216225,-4.177825198349357,2.1555945640891787
1684107923745804000,3.525803955078125,-1.444209650900215,-4.338383424574136,2.474654084008932
1684107923755822000,3.535822021484375,-2.8148317952811714,-2.7673656952291728,3.8213165300011633
1684107923765839000,3.545839111328125,-3.6158033097624775,-0.7258025839895009,5.1191772434234615
1684107923775857200,3.555857177734375,-4.003281701391935,1.3443033156454562,5.8519099189370865
1684107923785875200,3.565875244140625,-4.172072918432951,3.4843168642431497,6.178306357616186
1684107923795893200,3.575893310546875,-4.218704321226477,4.934206460475921,6.09405629504621
1684107923805910000,3.585909912109375,-4.108540649721026,5.732751040071249,5.801975382944941
1684107923815928300,3.59592822265625,-4.245691989134252,6.130198452529311,5.48925266483128
1684107923825946000,3.605946044921875,-3.9761026025652884,6.431839220136403,5.235733830836415
1684107923835963100,3.615963134765625,-1.9589559935711323,6.232702549192309,4.1024949398159976
1684107923845981200,3.625981201171875,2.3617791077181693,4.64017090717554,1.4562486098706722
1684107923855999200,3.635999267578125,3.233089940577745,2.9434950000733133,-0.6301204423010349
1684107923866016300,3.646016357421875,1.3505056774169206,1.1996411622107028,-1.7644260857701302
1684107923876034300,3.656034423828125,0.3601129033852368,0.14899989037811756,-2.378817044019699
1684107923886052000,3.666052001953125,-0.14935345305614173,-0.46711540744602675,-2.7840929581463336
1684107923896070100,3.676070068359375,-0.47665535267498343,-0.9034194970428943,-3.2783775275468825
1684107923906087200,3.686087158203125,-0.7053250286281109,-1.2961001334905624,-3.8404263041406868
1684107923916105200,3.696105224609375,-0.8914017269909381,-1.4984522593498228,-4.231690059527755
1684107923926123300,3.706123291015625,-0.8171088486813008,-0.9834797067075968,-4.955650815042853
1684107923936140000,3.71614013671875,-0.6596948387663811,0.0824918207257986,-6.039340954518318
1684107923946158000,3.726157958984375,-0.17095044090151787,-0.528026095482707,-7.5346303659230465
1684107923956176400,3.73617626953125,0.2949275154377334,-1.0149392593324185,-8.377295242273807
1684107923966193200,3.746193115234375,0.6287631824731826,-0.8450812898427248,-8.44719003175497
1684107923976211000,3.7562109375,1.0466612622857092,-0.7850222501993179,-7.27314917474687
1684107923986229200,3.766229248046875,1.426007785385847,-0.8959422930300235,-5.905739708802104
1684107923996246000,3.77624609375,1.8662638274788856,-0.8058394127786159,-4.416090349110961
1684107924006264300,3.786264404296875,2.349479890376329,-0.484504349142313,-2.6641975816994905
1684107924016282000,3.7962822265625,2.6028759747743604,-0.007150456276535987,-0.750318016564846
1684107924026300200,3.806300048828125,2.2292706256747246,0.5525888743311167,0.7354857736140489
1684107924036317200,3.816317138671875,1.390733058387041,1.1176111137777567,1.5717939744144678
1684107924046335200,3.826335205078125,0.39246889339312907,1.6239602149814367,1.8396657434105872
1684107924056353000,3.83635302734375,-0.6764193982698022,1.9516776731312273,1.7888573471933602
1684107924066370300,3.846370361328125,-1.309294984497875,2.4675883834064005,1.495040989601612
1684107924076388000,3.85638818359375,-1.0069522061012686,3.1791368165940046,1.1748802304416894
1684107924086406100,3.86640625,0.11227584135383367,3.7749224430948494,1.2923352279990912
1684107924096423200,3.876423095703125,0.44793549067974087,2.9122137266248465,1.5920739613771437
1684107924106441200,3.886441162109375,0.3200888629674911,1.4207535181194544,2.070930660021305
1684107924116459000,3.896458984375,-0.06773454270735382,0.18032792557775973,2.3951766426682473
1684107924126477300,3.906477294921875,-0.3329765477217734,-0.7848749506831169,2.4884862100064753
1684107924136494000,3.916494140625,-0.2887329168476164,-1.672050584411621,2.223855614888668
1684107924146512400,3.926512451171875,-0.23863471472635864,-2.492056469708681,1.4909370614141224
1684107924156530200,3.9365302734375,-0.5530440707527101,-3.190538500574231,0.44792672285139556
1684107924166547000,3.946546875,-1.2328842372514306,-3.5460651721477507,-0.3913280527949333
1684107924176565200,3.956565185546875,-1.9288159991122782,-3.63017845659554,-0.9069272129029035
1684107924186583300,3.966583251953125,-2.4518963087558743,-3.6251527373880146,-1.3894459411859512
1684107924196600300,3.976600341796875,-2.5926164465665815,-3.6293233010709285,-1.7196102079659699
1684107924206618000,3.9866181640625,-2.53696762458086,-3.561758415842056,-1.8717904819458722
1684107924216636200,3.99663623046875,-2.246186543031782,-3.2038474794805047,-1.6290204209804533
1684107924226654200,4.006654296875,2.1090284816168245,-1.4047054696381092,0.09771335525512695
1684107924236671200,4.016671142578125,10.52594276370406,2.0897335601687432,1.8791139567017554
1684107924246689000,4.02668896484375,10.207110622799396,3.3993379028767343,1.0287222854912281
1684107924256707000,4.03670703125,9.421913016033171,3.0483190641164777,-0.2851063969135284
1684107924266724000,4.04672412109375,7.673107693243026,2.443258244270086,-1.578649247136712
1684107924276742100,4.0567421875,5.598316850662231,1.878708298510313,-2.1720219672769305
1684107924286760200,4.06676025390625,3.606676584976911,0.954759808179736,-1.6877420745402574
1684107924296777200,4.076777099609375,1.5894798532307146,0.10793196693062782,-0.6183265441328287
1684107924306795000,4.086794921875,-0.5242167663276195,-0.060659343624114986,0.21927403456568717
1684107924316813300,4.096813232421875,-2.608469849258661,-0.28323183521330353,0.9931687415510415
1684107924326830000,4.106830078125,-4.090618624061346,-0.7279477793246507,1.567792922079563
1684107924336848400,4.116848388671875,-4.494837722611427,-0.9820435364246368,1.847730391922593
1684107924346866200,4.1268662109375,-4.224630788666009,-0.7786626520395279,2.2309704153299332
1684107924356884200,4.13688427734375,-3.9823382820844646,-0.4316577250957489,2.5293811149746177
1684107924366901200,4.1469013671875,-3.7550843546807764,-0.029740473747253415,3.0656057144820688
1684107924376919300,4.156919189453125,-3.2971289897680283,0.5597527746111154,3.7642671935677527
1684107924386937000,4.16693701171875,-2.148463981556892,1.0680793133676052,4.3856104551732535
1684107924396954000,4.1769541015625,-1.0220034986302255,1.109199259263277,4.266090926301479
1684107924406972200,4.18697216796875,-0.2649205179750919,0.5966945580393076,2.4117758952915667
1684107924416990200,4.196990234375,3.1607518495976925,0.40011049418747424,-0.5493237350553274
1684107924427007200,4.20700732421875,5.952804826837777,0.8125392026782036,-2.831200161758065
1684107924437025000,4.21702490234375,4.601109647375345,1.005717842000723,-2.3220512007027865
1684107924447043000,4.22704296875,3.1282243754804133,0.7110013206988572,-0.869044349232316
1684107924457061400,4.237061279296875,2.5653520075440404,-0.04261456836760044,0.1678548129737377
1684107924467078100,4.247078125,1.9238158527374267,-0.9405886594861745,0.6691635819226504
1684107924477096200,4.25709619140625,0.468371471921727,-1.6934376558333635,0.8639391350477933
1684107924487114200,4.2671142578125,-0.6576560994803905,-2.2852988023668526,0.5326905801624059
1684107924497131000,4.277131103515625,-1.217561434304714,-2.8640052837729453,0.01813128449618816
1684107924507149300,4.2871494140625,-1.5253952113330362,-3.310753025972843,-0.34008827942311765
1684107924517167000,4.2971669921875,-1.803438245731592,-3.428207439008355,-0.3030108869165182
1684107924527184100,4.30718408203125,-2.09882170650959,-3.1897406281948086,0.1438923381060362
1684107924537202200,4.3172021484375,-2.390999649244547,-2.630536719638109,0.8419231180727481
1684107924547220200,4.32722021484375,-2.5448271059095857,-1.8786025000482796,1.6370897456675766
1684107924557237200,4.3372373046875,-2.497382633167505,-1.0003618679255246,2.1527415127456186
1684107924567255300,4.34725537109375,-2.2885190795876085,-0.1525917773902416,2.1394705277621746
1684107924577273000,4.357273193359375,-2.1268458778582513,0.5416483781218528,1.7947002280026674
1684107924587291100,4.367291015625,-2.1285785468697545,1.032314172503352,1.298348204678297
1684107924597308200,4.37730810546875,-2.1397347316563127,1.1249059469610452,0.5411953736573457
1684107924607326200,4.387326171875,-2.0842365701876577,0.8009452109962701,-0.4892284550547599
1684107924617344300,4.39734423828125,-1.975707368016243,0.19646423686444758,-1.4153022669762372
1684107924627361000,4.407361083984375,-1.7510954795539377,-0.5666787744820118,-1.7744424528717995
1684107924637379000,4.417379150390625,-1.500598623728752,-1.2004320203274488,-1.5625328095942734
1684107924647397400,4.4273974609375,-1.3925953451275825,-1.3694137915045022,-0.9639870707303285
1684107924657414100,4.4374140625,-1.4366647884786128,-1.0004290879428386,-0.13932780666947364
1684107924667432400,4.447432373046875,-1.537348683977127,-0.24878186860084534,0.47623044179379936
1684107924677450500,4.457450439453125,-1.5753788471639156,0.5417296266645193,0.8286889579683542
1684107924687468500,4.467468505859375,-1.6377531780123709,1.2767320006757974,1.105269518598914
1684107924697485600,4.477485595703125,-1.6357774940252303,1.8506033170104026,1.1885703176200388
1684107924707503600,4.487503662109375,-1.5561153437674045,2.1790280466467142,0.877602918741107
1684107924717521400,4.497521484375,-1.380479375398159,2.360274840635061,0.26533728208243845
1684107924727538400,4.507538330078125,-1.2121627901315688,2.4912866543799637,-0.4165717996448278
1684107924737556500,4.517556396484375,-1.0009433941405266,2.5289953305274246,-1.0869091015219687
1684107924747574500,4.527574462890625,-0.7621803037941456,2.45296773737967,-1.7217524806916713
1684107924757591600,4.537591552734375,-0.6136287417054176,2.2676222759008406,-2.148701297444105
1684107924767609300,4.547609375,-0.5538052643835544,2.1873604061841965,-2.226940136900544
1684107924777627400,4.55762744140625,-0.5002735806822777,2.386653728994727,-2.383151273831725
1684107924787644400,4.56764453125,-0.15402268697619437,2.670943548828363,-2.82000130687356
1684107924797662500,4.577662353515625,0.9620102176994084,2.5789994246244428,-3.415064464318752
1684107924807680300,4.58768017578125,2.293539391967654,1.3875918377518652,-3.579903728863597
1684107924817698600,4.597698486328125,3.067919836643338,0.24293781874775885,-3.3978421113610264
1684107924827715300,4.60771533203125,3.528035009938478,-0.3063572747349739,-2.849581621623039
1684107924837733600,4.617733642578125,3.904766966626048,-0.22905600838959217,-2.060576439267397
1684107924847751400,4.62775146484375,4.120942450654506,0.5687152487456798,-1.7713175988495349
1684107924857768400,4.6377685546875,3.762839206591248,1.213231296145916,-2.114018106597662
1684107924867786500,4.647786376953125,2.906494179934263,1.3787667262613772,-2.40375040974617
1684107924877804500,4.657804443359375,2.0037112272292372,1.395830089265108,-2.4783535230487583
1684107924887821300,4.6678212890625,1.259765083783865,1.4677011472553014,-2.318422488811612
1684107924897839600,4.677839599609375,0.6903244433730841,1.5418652846187353,-1.994804867196083
1684107924907857400,4.687857421875,0.24138357504308222,1.4902835659414528,-1.6513351286411284
1684107924917875500,4.69787548828125,-0.0004985971719026565,1.2092495330333708,-1.2057459088265896
1684107924927892500,4.707892578125,-0.050965048083662985,0.8369324701786041,-0.6343512117385864
1684107924937910500,4.71791064453125,0.017861230816575698,0.539777323552966,-0.0029962592065334317
1684107924947928300,4.72792822265625,0.23546412186622617,0.2614963887453079,0.6834042887210846
1684107924957945300,4.7379453125,0.6633388212919235,0.2090297039270401,1.4249141449302434
1684107924967963400,4.74796337890625,1.1110212139934301,0.4925847797453403,2.2484522960066795
1684107924977981400,4.7579814453125,1.482879427164793,1.0045639957904815,3.19078224620223
1684107924987998500,4.76799853515625,1.7171879492551088,1.4105910205453633,3.9245816741645334
1684107924998016300,4.778016357421875,1.7214485293090342,1.5155027628719806,4.0418607306331396
1684107925008034600,4.78803466796875,1.5051666622966526,1.2843050662785769,3.4302041657835245
1684107925018052600,4.798052490234375,1.0717787524074316,0.6961147172123193,2.2800807754576207
1684107925028069400,4.8080693359375,0.535001195192337,-0.181823132571578,1.1582008983194827
1684107925038087400,4.81808740234375,0.04482583294259384,-1.2467588872164488,0.13493512466847896
1684107925048105500,4.82810546875,-0.4013140247583389,-2.158188672235608,-0.7045096205919981
1684107925058122500,4.83812255859375,-0.8049912715166807,-2.802213721248507,-1.21939683303833
1684107925068140500,4.848140625,-1.0446633664667606,-3.156237587043643,-1.250479369044304
1684107925078158300,4.858158447265625,-1.1604209124565124,-3.176363844749331,-0.8234925583690405
1684107925088175600,4.868175537109375,-1.3035621399343014,-2.55813608481586,0.18649755412340163
1684107925098193400,4.878193359375,-1.345944653111696,-1.7096037777364252,1.065899046719074
1684107925108211500,4.88821142578125,-1.1850316220998762,-1.2913976548880337,1.0148509965270758
1684107925118229500,4.8982294921875,-1.0035060111701488,-1.0886328565746546,0.588911064556241
1684107925128246500,4.90824658203125,-0.8414601767361164,-1.0012491721540688,0.35657588836550713
1684107925138264300,4.918264404296875,-0.6743932992696762,-0.9256196384131908,0.12562544453144073
1684107925148282600,4.92828271484375,-0.6022609599947929,-0.8120224853277206,-0.05961188039779663
1684107925158299400,4.93829931640625,-0.7634931399583816,-0.7967652949631213,-0.006171966633200645
1684107925168317400,4.9483173828125,-1.1134557476639746,-0.9348521616607904,0.19530922161042688
1684107925178335500,4.95833544921875,-1.5110989749550818,-1.1160241368472577,0.2469751114398241
1684107925188352500,4.9683525390625,-1.8449755402565002,-1.3770523235589265,0.2749333779454231
1684107925198370600,4.97837060546875,-2.0503706870734693,-1.5654203477293251,0.4672849187940359
1684107925208388600,4.988388671875,-2.0200982984066007,-1.5660422790199517,0.8234767762780189
1684107925218405400,4.9984052734375,-1.8160650875926017,-1.4367361001491545,1.2020657590091228
1684107925228423400,5.00842333984375,-1.708490848058462,-1.2474866169691086,1.6085440346628426
1684107925238441500,5.01844140625,-1.6861363929092883,-1.0361778621941804,2.0551573368281124
1684107925248459500,5.02845947265625,-1.6168366467118263,-0.8358902676492929,2.3609902954280373
1684107925258476500,5.0384765625,-1.5454887358129024,-0.551622075125575,2.558156543081999
1684107925268494300,5.048494384765625,-1.4557786542713642,-0.18824878170490264,2.665468332287669
1684107925278512400,5.058512451171875,-1.273774904435873,0.1684650538265705,2.5251912620693444
1684107925288529400,5.068529296875,-1.166923133957386,0.3833458218693733,2.069534237226844
1684107925298547500,5.07854736328125,-1.0349544578790664,0.46037236292660233,1.555388783058524
1684107925308565500,5.0885654296875,-0.8774890100378543,0.5383277092665434,1.0159148263663054
1684107925318582500,5.09858251953125,-0.7421838099479675,0.5948217499047518,0.574375174203515
1684107925328600300,5.108600341796875,-0.6024234570801258,0.5770546225458383,0.18041794194877148
1684107925338618600,5.11861865234375,-0.49494391009211536,0.4711655596196651,-0.27702771987617014
1684107925348636400,5.128636474609375,-0.4163713086366653,0.3384545407414436,-0.864126182052493
1684107925358653400,5.1386533203125,-0.3035077305227518,0.23452070353627202,-1.529905382233858
1684107925368671500,5.14867138671875,-0.1695610506360419,0.2676595875501633,-1.9587258380770682
1684107925378689500,5.158689453125,-0.12056874566376209,0.6792763951361179,-1.8425994587749241
1684107925388706600,5.16870654296875,-0.1944599478373304,1.4750170232266187,-1.1495482207864522
1684107925398724600,5.178724609375,-0.3477969541043043,2.4109873752623794,-0.38224282906353474
1684107925408742400,5.188742431640625,-0.5569534992814064,3.412105029991269,0.1090828905314207
1684107925418759700,5.198759765625,-0.7347855163902044,4.282596070900559,0.33394904601573944
1684107925428777500,5.208777587890625,-0.8778297132343054,4.8313563268542286,0.3672165248453617
1684107925438795500,5.21879541015625,-0.9587971008718014,4.958521986564993,0.2882522937238216
1684107925448813300,5.228813232421875,-1.0115005170553921,4.639764079940319,0.07481880187988281
1684107925458830300,5.238830322265625,-0.9585562778532505,3.5623043592870234,-0.27019875063896176
1684107925468848400,5.248848388671875,-0.7805769612282514,1.6187474487692117,-0.5409323388069868
1684107925478866700,5.25886669921875,-0.2957328587375581,-0.16080489446222782,-0.4853747022360563
1684107925488883500,5.268883544921875,0.35844343580305577,-0.9489350475490093,-0.11431436144411564
1684107925498901200,5.2789013671875,0.914602569836378,-1.2975024015039205,-0.09533844281733035
1684107925508919600,5.28891943359375,1.3834616060793399,-1.9697434911757707,-0.3228577431589365
1684107925518936300,5.298936279296875,1.7561223678052424,-2.6530443195223805,-0.3732470371812582
1684107925528954600,5.30895458984375,1.9035814584821462,-2.962246462294459,-0.07822247284352779
1684107925538972400,5.318972412109375,2.037026052331924,-2.611461432290077,0.6234311737954616
1684107925548989400,5.328989501953125,2.1967039885908366,-1.458873113155365,1.8617676851034164
1684107925559007500,5.339007568359375,2.102360986551642,-0.0369388608187437,3.1678005990654228
1684107925569025500,5.349025634765625,1.9347298993311821,1.1010106921106577,3.9740298879444595
1684107925579043300,5.359043212890625,1.841098406562209,1.9620874234646557,4.44028078751564
1684107925589060600,5.369060546875,1.8303128086537122,2.7598458211183545,4.782054243546724
1684107925599078400,5.379078369140625,1.9786083501547573,3.361124784338474,4.768421439513564
1684107925609096400,5.389096435546875,2.081591170245409,3.4109827479630708,4.296557960757613
1684107925619113500,5.399113525390625,1.7658219240427016,2.469355977600813,3.5201048014611005
1684107925629131500,5.409131591796875,1.3435644799768924,1.159410858631134,2.954109333068132
1684107925639149300,5.4191494140625,1.0669242981135845,0.2227542778968811,2.505661216691136
1684107925649166600,5.42916650390625,0.8620365162968635,-0.45550972532629963,1.9847475835621355
1684107925659184000,5.43918408203125,0.6416723484069109,-0.8671212722152472,1.575732482907176
1684107925669202400,5.449202392578125,0.3923305078357458,-0.9425281031161546,1.3137713992595672
1684107925679220200,5.45922021484375,0.199303844204545,-0.6579746639102697,1.2404688471615313
1684107925689237200,5.4692373046875,0.11548822752907871,-0.07119535068571567,1.450681623393297
1684107925699255300,5.47925537109375,0.1096937889713794,0.7433557763367891,1.8280647374659775
1684107925709273300,5.4892734375,0.2530336808264255,1.4242717553734778,1.9687480503976345
1684107925719290400,5.499290283203125,0.45933951274752616,1.592552684804797,1.4865747745513915
1684107925729308400,5.509308349609375,0.6542308012068271,1.377560273081064,0.7794891659915447
1684107925739326200,5.519326171875,0.8047995483368635,1.227026597264409,0.21767712076306342
1684107925749343500,5.529343505859375,0.9128377521209419,1.3261398824453352,-0.1299661040842533
1684107925759361300,5.539361328125,0.9375715036220847,1.647342844134569,-0.26691549118459224
1684107925769379300,5.54937939453125,0.8652953719623386,2.0305103868275878,-0.14414543608427047
1684107925779397400,5.5593974609375,0.7265871584959328,2.3636796806424853,-0.150265380269289
1684107925789414400,5.569414306640625,0.6448673450559377,2.743873175960779,-0.3185638453572988
1684107925799432200,5.57943212890625,0.6804162128210067,3.130496412065625,-0.6659732614487409
1684107925809450500,5.589450439453125,0.8355348783403634,3.4932296540170906,-1.2417618095815182
1684107925819467300,5.59946728515625,1.0381371795684098,3.58234118514359,-1.9557593894869088
1684107925829485300,5.6094853515625,1.2512830866426228,3.1191946813285347,-2.5569465827703475
1684107925839503400,5.61950341796875,1.469393338125944,2.179526059296727,-2.7752526490867138
1684107925849520000,5.62952001953125,1.5539631341695785,1.4691723888516426,-1.9082301610708237
1684107925859538400,5.639538330078125,1.5165361975729466,1.3800965135604142,-0.6953092460483312
1684107925869556200,5.64955615234375,1.4137392554432153,1.5626409461438655,0.037810967478156085
1684107925879573200,5.6595732421875,1.3129068913847208,1.808117927980423,0.4744552488148212
1684107925889591300,5.66959130859375,1.1272457880854605,2.0116747534543276,0.7198258476674556
1684107925899609300,5.679609375,0.8634434604853392,1.9625316601008176,0.8823077354311942
1684107925909627100,5.689627197265625,0.6546569176644087,1.6550076796740292,1.024281672695279
1684107925919644400,5.69964453125,0.43063539631068704,1.2269979556918142,1.2116472418248652
1684107925929662200,5.709662109375,0.16771335867643355,1.0619055931687353,1.4509078333646057
1684107925939680300,5.71968017578125,-0.07822773354053497,1.1921294714063406,1.824402707827091
1684107925949697300,5.729697265625,-0.3713900111377239,1.1586609170466662,1.831256811505556
1684107925959715300,5.73971533203125,-0.7307809569239616,0.768061763048172,1.3833897098869083
1684107925969733000,5.749733154296875,-1.0776748247087,0.38244974981248375,0.9713754274159669
1684107925979750400,5.75975048828125,-1.3792296675980091,0.3035544922739267,0.7606792515814303
1684107925989768200,5.769768310546875,-1.6001275039732454,0.6002478666067123,0.7797147914409637
1684107925999786500,5.779786376953125,-1.7435387805640696,1.0320938077509403,0.9222615601569414
1684107926009804300,5.78980419921875,-1.7694634954154491,1.4600228677123783,0.9655839845329522
1684107926019821300,5.7998212890625,-1.7525988698542116,1.6773393384695052,0.9227373609751462
1684107926029839400,5.80983935546875,-1.6394295867919921,1.5904320393890141,0.790454796642065
1684107926039857400,5.819857421875,-1.327139561007172,1.1671844152420758,0.4054577004343271
1684107926049874400,5.82987451171875,-0.8543385091401636,0.569257685059309,-0.1504307999640703
1684107926059892500,5.839892578125,-0.3290403773166239,0.3010919015526771,-0.5087281052947044
1684107926069910300,5.84991015625,0.042873365434259174,0.46895548235476014,-0.40732933952510353
1684107926079927300,5.85992724609375,0.22769246495142578,0.878643367704749,0.061900868117809295
1684107926089945300,5.8699453125,0.25497663158774375,1.1144991192370652,0.46451077790558337
1684107926099963100,5.879963134765625,0.23337036445736883,1.1255261246860027,0.5494827250093222
1684107926109980400,5.88998046875,0.19379925543889404,1.0073802222549915,0.4819306992620229
1684107926119998200,5.899998291015625,0.16801994040757418,0.7794564327657222,0.25376141057908536
1684107926130016300,5.910016357421875,0.17516279789954423,0.44909167497754093,-0.1461263807684183
1684107926140034300,5.920034423828125,0.25300211664438244,0.09898644393086432,-0.5321393760204315
1684107926150051300,5.93005126953125,0.3879924786314368,-0.22713585398197172,-0.8328244503378868
1684107926160069000,5.940069091796875,0.43671383944153785,-0.4731757303982973,-0.8949947830468415
1684107926170087400,5.95008740234375,0.3260565392002463,-0.5111135391265154,-0.6503957530885934
1684107926180104200,5.960104248046875,0.17234131073802708,-0.28390578895211216,-0.2806821507304907
1684107926190122200,5.970122314453125,0.03675736677199602,0.06719254478514194,-0.12569441811442375
1684107926200140300,5.980140380859375,-0.1283843878507614,0.40474516825079915,-0.04426058200895786
1684107926210157300,5.9901572265625,-0.2132861923277378,0.5650491274535656,-0.18401275157034397
1684107926220175400,6.00017529296875,-0.18920739760398864,0.4760749589711427,-0.5607078833788633
1684107926230193400,6.010193359375,-0.0661377750352025,0.12648293814361095,-1.014147232171893
1684107926240211200,6.020211181640625,-0.09055588471591472,-0.40781390817165375,-1.5201023656219244
1684107926250228500,6.030228515625,-0.30914982806295155,-0.7918810300529002,-1.5624866323649882
1684107926260246300,6.040246337890625,-0.4548968541249633,-0.8268208260089158,-0.9604553894728421
1684107926270264300,6.050264404296875,-0.5423997810110449,-0.6456055962026119,-0.3961889368295669
1684107926280281300,6.06028125,-0.6791852097213268,-0.37728666796088217,-0.19987726017832755
1684107926290299400,6.07029931640625,-0.8348191312864423,-0.1349251877963543,-0.3285714446306228
1684107926300317200,6.080317138671875,-0.922045871579647,-0.08837503354549407,-0.57721945771873
1684107926310334200,6.090334228515625,-0.7890344084501266,-0.3562327740162611,-0.7846300360113382
1684107926320352300,6.100352294921875,-0.4695633851200342,-0.8825269311398267,-1.0113847817212342
1684107926330370300,6.110370361328125,-0.024011574706435203,-1.5360118824154139,-1.2328180401474236
1684107926340387300,6.12038720703125,0.5533569360941648,-2.0937223375439644,-1.3364496795356273
1684107926350405000,6.130405029296875,1.1768334103360771,-2.3509172297030685,-1.1413549774587153
1684107926360423400,6.14042333984375,1.6949217569112778,-1.9308698629021643,-0.4258551762968302
1684107926370441200,6.150441162109375,1.9705515926882624,-0.8607838858872652,0.7720289131134748
1684107926380458200,6.160458251953125,2.0100018518060443,0.23052315833270548,1.7683318610370158
1684107926390476300,6.170476318359375,1.8315724533259867,0.9295230755925178,2.1194237650334835
1684107926400494300,6.180494384765625,1.4313251810163259,1.089478659749031,1.7670605259269474
1684107926410511400,6.190511474609375,0.7069172662556171,0.6063631346166134,0.5272971966862678
1684107926420529400,6.200529296875,-0.21189678379595278,-0.503562685355544,-1.2094962012708186
1684107926430547200,6.210547119140625,-0.8935533520668745,-1.8149089032948016,-2.349689733734727
1684107926440564500,6.220564453125,-1.2598708822458982,-2.8568729476749897,-2.972214898601174
1684107926450582300,6.230582275390625,-1.466885154697299,-3.4372108296751973,-2.9996248835742474
1684107926460600300,6.240600341796875,-1.5500059209764003,-3.2984815734207626,-2.2254782476544377
1684107926470618400,6.250618408203125,-1.8040151688367128,-2.334830602777004,-1.0066507389366626
1684107926480635400,6.260635498046875,-2.4664485657215116,-0.9062807316929101,0.1367886435806751
1684107926490653200,6.270653076171875,-3.1246696056082843,0.34245676212012766,0.7454314135670661
1684107926500671500,6.28067138671875,-3.2504338740885257,1.1100649361819028,0.6490981144934892
1684107926510688300,6.290688232421875,-3.180156222769618,1.211326923829317,0.35066695658266545
1684107926520706300,6.300706298828125,-2.83134044701159,0.4784036941796541,0.03741524615883827
1684107926530724400,6.310724365234375,-2.2599387356609104,-0.7893728466242551,-0.6095610538750886
1684107926540741000,6.3207412109375,-1.7098212198793887,-1.7925211303979158,-1.4452221889436243
1684107926550759400,6.330759521484375,-1.3216864101678132,-2.409973814305663,-1.9853432113677263
1684107926560777200,6.340777099609375,-1.1902426347464323,-2.6211025363385674,-2.341270864957571
1684107926570795300,6.350795166015625,-1.3090858717918394,-2.3979145431995392,-2.628721779170632
1684107926580812300,6.360812255859375,-1.641406439822912,-1.6151351034909487,-2.4849217955231664
1684107926590830300,6.370830322265625,-1.979862149608135,-0.48176469504535196,-2.184945161736011
1684107926600848100,6.38084814453125,-2.1145225489884614,0.2454676294863224,-1.970820765018463
1684107926610865400,6.390865478515625,-2.0286907701849937,0.4574626129597425,-1.9265087450832128
1684107926620883200,6.40088330078125,-1.7957208032220602,0.39572073479592795,-2.002522309705615
1684107926630901200,6.4109013671875,-1.554433674290776,0.27300211762189863,-2.003330118957162
1684107926640918300,6.420918212890625,-1.3776432751893997,0.18431144225597382,-1.6240853026658295
1684107926650936300,6.430936279296875,-1.2878823402434587,0.07945230689942837,-1.0140344194471835
1684107926660953900,6.440953857421875,-1.3373556884646416,-0.16890695237517356,-0.5091267492234707
1684107926670970600,6.450970703125,-1.524811858487129,-0.5824176108837127,-0.14188158280551433
1684107926680988700,6.46098876953125,-1.8303589858829974,-1.0718798746943474,-0.031200024905800816
1684107926691006700,6.4710068359375,-2.1387322766155004,-1.4398416649490593,-0.27604280049204827
1684107926701024800,6.481024658203125,-2.456223524305224,-1.4811960041224956,-0.776463680690527
1684107926711041800,6.491041748046875,-2.796903339880705,-1.2702788790136574,-1.3760054448544978
1684107926721059600,6.5010595703125,-3.121484838092327,-0.982419968521595,-1.882050010153651
1684107926731077600,6.51107763671875,-3.3086738816112278,-0.7072656413018703,-2.18658883728981
1684107926741094700,6.5210947265625,-3.3758266789078712,-0.42850422950088973,-2.2539842111706734
1684107926751112700,6.53111279296875,-3.1544477810174225,-0.20655717633366583,-1.8757564629673957
1684107926761130500,6.541130615234375,-2.652545722350478,-0.2570709735184908,-1.420921860423684
1684107926771147800,6.551147705078125,-2.0494956578046084,-0.5891489649653434,-1.0895873808205128
1684107926781165600,6.56116552734375,-1.5186609346419573,-1.1884417228043078,-0.8390694822072983
1684107926791183600,6.57118359375,-1.123041322132945,-1.8645570235610007,-0.6151192725241184
1684107926801200600,6.58120068359375,-0.9919663800239562,-2.4643062929958104,-0.4846972413659095
1684107926811218700,6.59121875,-1.2311235111892223,-2.858712438061833,-0.5310661938309669
1684107926821236700,6.60123681640625,-1.8254589388817548,-3.0473703850895166,-0.7073153256624937
1684107926831254800,6.6112548828125,-2.6607266907185316,-3.092743312254548,-0.9096312111645937
1684107926841271600,6.621271484375,-3.4795348906636234,-3.094095311385393,-1.201349135172367
1684107926851289900,6.631289794921875,-4.125013645616174,-2.9877000525027513,-1.4707786550045012
1684107926861307600,6.6413076171875,-4.52252769356966,-2.7880414035111665,-1.618991194397211
1684107926871324700,6.65132470703125,-4.548466436946391,-2.433780221828818,-1.8533739507675169
1684107926881342700,6.6613427734375,-4.406233556485176,-2.0153882210195064,-2.305619121339917
1684107926891360800,6.67136083984375,-4.16094069904387,-1.7329408141821623,-2.698654562574625
1684107926901377800,6.681377685546875,-3.834719032409787,-1.5941162808597087,-2.669130946448445
1684107926911395800,6.691395751953125,-3.4793846685379743,-1.5741075120538472,-2.1146046743139624
1684107926921413600,6.70141357421875,-3.091011958417296,-1.781847176170349,-1.4358058335617183
1684107926931431700,6.711431640625,-2.8274264884382485,-2.1440490877240896,-0.6183563547492027
1684107926941448700,6.72144873046875,-2.590737793213129,-2.3595991333305832,0.02621814484000206
1684107926951466500,6.731466552734375,-2.2704016774863005,-2.4033862526088954,0.5084615633130073
1684107926961484500,6.741484619140625,-1.6888287007331848,-2.2399200299829243,0.71619041377455
1684107926971501600,6.75150146484375,-0.9440794242113828,-1.7855840246111154,0.5698351926863193
1684107926981519600,6.76151953125,-0.35074762060344217,-1.0716595099419355,0.4110679415315389
1684107926991537700,6.77153759765625,-0.1028740990191698,-0.2520470078766346,0.4070195429235697
1684107927001554700,6.7815546875,-0.22437223448753355,0.4534089536547661,0.5831038395822048
1684107927011572500,6.791572509765625,-0.5813543655663729,0.9325485608935355,0.7216396190911532
1684107927021590800,6.8015908203125,-0.9842197114199399,0.9968015450954437,0.6104349141001701
1684107927031608600,6.811608642578125,-1.1344932749956846,0.5837801314085722,0.4430035872355103
1684107927041625900,6.8216259765625,-0.9313093744874,-0.0808534058690071,0.5369681113511323
1684107927051643600,6.8316435546875,-0.43329263282120223,-0.538423570856452,0.8564666072100401
1684107927061661700,6.84166162109375,-0.014266425761580466,-0.6546539950549602,1.248133098179102
1684107927071678700,6.8516787109375,0.08470014442503451,-0.5046101485818624,1.386521870432794
1684107927081696800,6.86169677734375,-0.27258593803644177,-0.2165583458662033,0.9562722585693001
1684107927091714600,6.871714599609375,-0.9468763614535332,0.1569406202495098,0.3934457756012678
1684107927101731800,6.88173193359375,-1.6975602887213228,0.5731985316395759,-0.0646323389083147
1684107927111749600,6.89174951171875,-2.2672668865919112,0.9376917690008878,-0.33596038583815097
1684107927121767700,6.901767578125,-2.530762340199947,1.1983534604877233,-0.39706718096882104
1684107927131784700,6.91178466796875,-2.3513258105039596,1.139692012682557,-0.40152094550728795
1684107927141802800,6.921802734375,-1.664068353486061,0.6557189939379692,-0.6323758200123906
1684107927151820500,6.931820556640625,-0.6497796670168637,-0.056009471991658205,-1.0984785432845354
1684107927161838800,6.9418388671875,0.23344342969357967,-0.6424521006077527,-1.6284861679732798
1684107927171855600,6.951855712890625,0.5889379525631666,-0.8516776193678378,-1.8621441172003745
1684107927181873700,6.961873779296875,0.41380116588771343,-0.76312313760221,-1.7488561761945485
1684107927191891700,6.9718916015625,-0.17952128536999223,-0.21014321812689304,-1.2213628724142909
1684107927201908500,6.981908447265625,-0.9819435831815003,0.586533229508996,-0.23760171841681002
1684107927211926800,6.9919267578125,-1.583608330848813,1.2391057421147822,0.7563190105453134
1684107927221944600,7.001944580078125,-1.769120381066203,1.609511418390274,1.5351321769714354
1684107927231961600,7.011961669921875,-1.4707038362026215,1.5556670154780148,1.7008400410443543
1684107927241979600,7.021979736328125,-0.9533417580753565,0.8981360036820173,0.7022273548737168
1684107927251997700,7.031997802734375,-0.5109375980377197,0.007544424030184745,-0.389377795509994
1684107927262015500,7.042015380859375,-0.33820144276320935,-0.49130701489448547,-0.6890472630441189
1684107927272032800,7.05203271484375,-0.299816474789381,-0.5050561387836933,0.03731733874231577
1684107927282050600,7.062050537109375,-0.1918704793334007,-0.25261048697829247,1.1466995533570647
1684107927292068600,7.072068603515625,-0.05345277324616909,0.1334124451458454,2.0984028965756294
1684107927302085600,7.082085693359375,0.07868892131149768,0.5743441945433616,2.5668364008828997
1684107927312103700,7.092103759765625,0.0594867927134037,0.9555389758586883,2.0410317808419465
1684107927322121700,7.102121826171875,-0.19792904872000217,1.295887952044606,1.059465214279294
1684107927332138800,7.112138671875,-0.5698854615688324,1.4275713814407587,-0.1022334630280733
1684107927342156500,7.122156494140625,-0.72326809707582,1.1796107660949229,-0.9549702360600233
1684107927352174800,7.1321748046875,-0.5910755491137504,0.6526373945355415,-1.0772054536312818
1684107927362192600,7.142192626953125,-0.22595804237425327,0.29423721335232256,-0.09551672199368476
1684107927372209700,7.152209716796875,0.26377777768075467,0.01606616865992546,0.9309674291819333
1684107927382227700,7.162227783203125,0.6632178252607583,-0.30006372754871846,1.0717559560537337
1684107927392245800,7.172245849609375,0.828030786320567,-0.29053835883438583,0.6907669264435767
1684107927402262800,7.1822626953125,0.6716027917683124,0.2555962247908115,0.2975087823688984
1684107927412280600,7.192280517578125,0.29106209044754505,1.1128963602155446,-0.3880500540375709
1684107927422298600,7.202298583984375,-0.15248656345009803,1.8600223027408123,-0.9863210676133632
1684107927432315600,7.212315673828125,-0.5150450333565473,2.310861698168516,-0.8617237970858812
1684107927442333700,7.222333740234375,-0.590134468871355,2.1375749232739207,-0.019154782325029374
1684107927452351500,7.2323515625,-0.26021657806783915,1.041055697363615,0.4889221655845642
1684107927462369800,7.242369873046875,0.2560030520260334,-0.2561509360641241,0.4861217212110758
1684107927472386600,7.252386474609375,0.7388461899578571,-1.135592760670185,0.05678220992982387
1684107927482404600,7.262404541015625,1.0045341851741074,-1.42413731533885,-0.3686614629566669
1684107927492422700,7.272422607421875,0.9264023132234811,-1.0661655887007713,-0.5340326424211264
1684107927502439700,7.282439697265625,0.6166033736020327,-0.14507014971375465,-0.3114455377846956
1684107927512457700,7.292457763671875,0.07322948686182498,0.7928273709923028,0.3574520866781473
1684107927522475800,7.302475830078125,-0.47942193131148814,1.1399895343244075,0.9814122527837753
1684107927532492500,7.312492431640625,-0.7132783257201314,0.732339292281866,1.3673732255876063
1684107927542510800,7.3225107421875,-0.5981669686794281,-0.08638999720811844,1.3692495408535004
1684107927552528600,7.332528564453125,-0.21902210563123226,-0.8057856367647648,0.9487497541099786
1684107927562546700,7.342546630859375,0.16782324879169463,-0.8708966991007328,0.47805415008962154
1684107927572563700,7.352563720703125,0.4662205044329166,-0.23089491425454614,0.18071487906873226
1684107927582581800,7.362581787109375,0.49125090079307554,0.8244546813994645,0.16697569205164908
1684107927592599600,7.372599609375,0.32166590302586556,1.7922399753689764,0.4253559946030378
1684107927602616800,7.382616943359375,0.29282442394495006,2.1514234158843752,0.5651654473096132
1684107927612634600,7.392634521484375,0.6870254018276929,1.7506144180387258,0.5872884317904711
1684107927622652700,7.402652587890625,1.4362863105550407,0.8426549394786358,0.523054152289033
1684107927632669700,7.412669677734375,2.120845322269201,-0.10857669457495212,0.09337211118042468
1684107927642687500,7.4226875,2.377868072731793,-0.5969260287076235,-0.3151899850100279
1684107927652705800,7.432705810546875,2.088049260343611,-0.556579405272007,-0.4468611394464969
1684107927662724400,7.442724365234375,1.3934230281233786,-0.22871698569357393,-0.3005085487067699
1684107927672741000,7.4527412109375,0.6029091947704553,0.19930150611698627,0.11398118396699428
1684107927682759200,7.46275927734375,-0.04796060557067394,0.402138200622797,0.5153302800387144
1684107927692777200,7.472777099609375,-0.31846739924550055,0.1910644236475229,0.7601455830961465
1684107927702794000,7.4827939453125,-0.1330944652378559,-0.23005378725528716,0.8926900132358073
1684107927712812300,7.492812255859375,0.2516241062894463,-0.5498480511903763,0.8880033167243003
1684107927722830000,7.502830078125,0.6403410998031497,-0.43025721064805983,0.8716296895503998
1684107927732847000,7.51284716796875,0.7960168146833777,0.24394144283235072,1.075489297363162
1684107927742865200,7.522865234375,0.7000058794319629,0.992030092909932,1.371836634737253
1684107927752883200,7.53288330078125,0.4316206079557538,1.4444476974397897,1.3388380359768868
1684107927762900200,7.542900146484375,0.18878873380050062,1.3479337811022996,0.9490981291562318
1684107927772918300,7.552918212890625,0.2543506086438894,0.8467401629656552,0.6352449457079172
1684107927782936000,7.56293603515625,0.668145929312706,0.26448914082050323,0.3474035708725452
1684107927792954000,7.5729541015625,1.1604022077560423,-0.04103402117788792,0.22098142300546167
1684107927802971100,7.58297119140625,1.4467184188507496,0.0870452462464571,0.3551484859108925
1684107927812989200,7.5929892578125,1.353642660268396,0.5779705683469772,0.5635159265369176
1684107927823007200,7.60300732421875,0.9997297075018287,1.1248995172202587,0.7569394805312156
1684107927833024300,7.613024169921875,0.5913572886645794,1.4789111080557107,0.8268214105308055
1684107927843042000,7.6230419921875,0.31733459582328793,1.4537199681758879,0.7400216634780168
1684107927853060400,7.633060302734375,0.23753435226902364,0.9865016848772764,0.5693821882218122
1684107927863077000,7.6430771484375,0.31899799899086356,0.1815273644953966,0.23918694178164004
1684107927873095200,7.65309521484375,0.46027460164055223,-0.4722808273851871,-0.1286374858289957
1684107927883113200,7.66311328125,0.5945547695316374,-0.7048638408571481,-0.27054654116332527
1684107927893131300,7.67313134765625,0.7162308919154107,-0.4220926088929176,-0.0331745398491621
1684107927903148300,7.683148193359375,0.7889138508103788,0.13278700672388077,0.32558278420865533
1684107927913166300,7.693166259765625,0.8743838105641305,0.724931646373868,0.6168231538325548
1684107927923184000,7.70318408203125,1.0053739239338786,1.1223322970807552,0.8269985206633805
1684107927933201200,7.713201171875,1.2126619718253613,1.2133213125169275,0.953575566831231
1684107927943219200,7.72321923828125,1.3905997873961924,1.0159165799319743,0.9424076916068792
1684107927953237000,7.733237060546875,1.4697007966399191,0.7418915490031242,0.8313812657922506
1684107927963254300,7.743254150390625,1.5925041694879531,0.551062687677145,0.786347945845127
1684107927973272000,7.75327197265625,1.8042706049025057,0.6597025106161832,0.8568594059199094
1684107927983290000,7.7632900390625,2.037701759636402,1.0088783518582582,1.0425409674853086
1684107927993308200,7.77330810546875,2.120556568455696,1.525765213689208,1.4191115961313248
1684107928003325200,7.7833251953125,1.923817021781206,1.9472984351336955,1.916196609905362
1684107928013343000,7.793343017578125,1.5289806686043739,2.111958835980296,2.142102629831433
1684107928023361300,7.803361328125,1.1896902615606784,2.063347073024511,2.1789894682019946
1684107928033378000,7.8133779296875,1.0240589698553084,1.8323598043113947,2.05156311172843
1684107928043396400,7.823396240234375,1.0124971268773078,1.4755653047591446,1.8436849159240722
1684107928053414100,7.8334140625,1.146178452092409,1.1960709025084972,1.9241671503931284
1684107928063431200,7.84343115234375,1.2917910381197928,1.1218050583362578,2.171764193123579
1684107928073449200,7.85344921875,1.2722463796943426,1.2790449537932873,2.583259420156479
1684107928083467300,7.86346728515625,1.1381804390758274,1.6637591414064168,2.8868092362552877
1684107928093485000,7.873485107421875,0.925624899110198,2.0831161878556013,2.950827242657542
1684107928103502300,7.88350244140625,0.665389324080944,2.413936872717738,2.9907132628440856
1684107928113520000,7.89352001953125,0.5218628966778517,2.5064976675152777,2.9430829121410844
1684107928123538200,7.9035380859375,0.5251145919501781,2.2609370990484954,2.5522657314777373
1684107928133555200,7.91355517578125,0.7011749232113361,1.8063357207387685,2.068528859576583
1684107928143573200,7.9235732421875,0.9711685066670179,1.5743237851530312,1.9246797760903833
1684107928153591000,7.933591064453125,1.2180974408775567,1.7197376337379215,2.098994724988937
1684107928163608000,7.943608154296875,1.4508096336871386,2.178687270385027,2.6079712520867586
1684107928173626000,7.953626220703125,1.6295494132906199,2.5305045660465955,2.936239329856634
1684107928183644200,7.96364404296875,1.6747990063369274,2.49052911401093,2.772954309016466
1684107928193661200,7.9736611328125,1.5474369472712277,1.8539906213611363,1.7288070753782987
1684107928203679000,7.983678955078125,1.407566704288125,1.2104004566341637,0.6992109296619892
1684107928213697300,7.993697265625,1.2647224139302968,1.0531506243050097,0.23527824390530586
1684107928223715000,8.003715087890624,1.1675368819415568,1.2220271815419197,0.5442524231404066
1684107928233732000,8.013732177734376,1.1755454163521528,1.554116863426566,1.0961422092914581
1684107928243750100,8.023750244140626,1.2704635879307984,1.753769667199254,1.4081833748817443
1684107928253768200,8.033768310546876,1.3166203589498997,1.5743091721057891,1.58829502736032
1684107928263785200,8.04378515625,1.1901958729952573,1.049164769539237,1.4264596208065747
1684107928273803300,8.05380322265625,0.918241218599677,0.3638946869462728,1.0718734449535607
1684107928283821000,8.063821044921875,0.5360410596340894,-0.33023616297245023,0.632362083747983
1684107928293838300,8.07383837890625,0.21900573901832102,-0.8473404669463634,0.34220834031701086
1684107928303856000,8.083856201171875,0.04625029452145099,-1.0565028573423623,0.4382791890621185
1684107928313874200,8.093874267578125,0.1121130337412469,-0.972130629697442,0.9087257867574692
1684107928323892200,8.103892333984374,0.40055294072534886,-0.6317664559423923,1.3947750272542236
1684107928333909200,8.1139091796875,0.8152648282498121,-0.16483926454484463,1.7008055542528628
1684107928343927000,8.123927001953126,1.1271195313572884,0.21177111158967016,1.6488380511283873
1684107928353945300,8.1339453125,1.1793015540152787,0.3582090425252914,1.4402946694135665
1684107928363962000,8.143962158203125,1.0692816748946905,0.40048984889388084,1.3111615090221165
1684107928373980200,8.153980224609375,0.9049667264848947,0.38422552731335163,1.1362573620587586
1684107928383998200,8.163998291015625,0.6760223617762326,0.4061626338332891,0.8035200299203396
1684107928394015000,8.174014892578125,0.4122814089745283,0.65737728253901,0.33360242453515526
1684107928404033300,8.184033203125,0.3773077107489109,1.1445125647068024,0.09603986908495425
1684107928414051000,8.194051025390625,0.5479933632344007,1.685521475881338,0.35927462593019005
1684107928424068000,8.204068115234374,0.6736427731633186,2.10570386723876,0.5509633189558982
1684107928434086100,8.214086181640624,0.5603583392888307,2.2620085276722905,0.4068833493232727
1684107928444104200,8.224104248046874,0.31688568301200865,2.29778009827733,0.0015115736067295073
1684107928454122000,8.2341220703125,0.2000736777995713,2.2846131581902505,-0.450481083509326
1684107928464139300,8.24413916015625,0.23794247641218824,2.148166459915042,-1.0948176826894283
1684107928474157000,8.254156982421875,0.3175216062953696,1.9255173959583043,-1.6283154875814914
1684107928484175000,8.264175048828125,0.3643242740025744,1.841701048630476,-1.5110755940794944
1684107928494192000,8.274192138671875,0.34546536935158073,1.952590111801028,-0.6348118149876594
1684107928504210200,8.284210205078125,0.15541377600841225,2.0775562156409024,0.05887947447001934
1684107928514228200,8.294228271484375,-0.15863346870727837,2.2642501691192387,0.4178916500717401
1684107928524245200,8.304245361328125,-0.4126164861477911,2.4941046344101427,0.295698518076539
1684107928534263000,8.314262939453124,-0.44598442967720325,2.559259535887837,-0.1685042167931795
1684107928544281300,8.32428125,-0.2308640807248652,2.255043364834785,-0.7103817274957895
1684107928554299100,8.334299072265624,0.09509484331980347,1.3488549876004456,-1.301964057087898
1684107928564316200,8.344316162109376,0.2918598166964948,0.3434036875814199,-1.52609722212255
1684107928574334200,8.354334228515626,0.19666355882883071,-0.23168752593696115,-0.9753191966056823
1684107928584352300,8.364352294921876,-0.11849325456395744,-0.1967167503207922,-0.05680033010840416
1684107928594369300,8.374369384765625,-0.5371349923506379,0.40072833382487294,0.9552104745566844
1684107928604387300,8.38438720703125,-0.7965358701214194,1.1764596085876227,1.5899918944060802
1684107928614405000,8.394405029296875,-0.6876198605895042,1.8089613930672406,1.9070389054596424
1684107928624422100,8.404422119140625,-0.390210593072325,1.8687351860284804,1.6335224085748195
1684107928634440200,8.414440185546875,-0.024290537778288126,1.3642659072220324,0.7723311109304427
1684107928644458000,8.4244580078125,0.2844415032640099,0.3832452841043472,0.106695118612051
1684107928654475300,8.434475341796874,0.47932168580740686,-0.5541799429148435,-0.18602292234897613
1684107928664493000,8.4444931640625,0.5047285142645239,-1.2644523648172616,-0.34118776509761806
1684107928674510800,8.4545107421875,0.35077772348076103,-1.6520657810032366,-0.17910627482831476
1684107928684529200,8.464529052734376,0.1279927581846714,-1.4376298341184854,0.6796060654819012
1684107928694546000,8.4745458984375,-0.06394932508021593,-0.5992191080808639,1.8723370099127292
1684107928704564000,8.48456396484375,-0.14198299735337494,0.36880408629775047,2.6826129438340662
1684107928714582000,8.49458203125,-0.01662029541134834,1.0340981333106756,2.9453841748207807
1684107928724599000,8.50459912109375,0.215322374330461,1.0981447812855243,1.9870710580736397
1684107928734617000,8.5146171875,0.40429274830818174,0.7676543512910604,0.9377812008500098
1684107928744635100,8.52463525390625,0.39139381150752306,0.1534469329148531,0.7886316728681325
1684107928754652000,8.53465185546875,0.31212153735011816,-0.4680763614326715,1.0208487756371498
1684107928764670200,8.544670166015624,0.28986498961746693,-0.9103630325704812,1.268239482140541
1684107928774688000,8.55468798828125,0.25933219644874334,-0.9530845684438943,1.3596499378591775
1684107928784706000,8.5647060546875,0.07975859636962414,-0.5933791498810053,0.8490694826960563
1684107928794723000,8.57472314453125,-0.32563100726455446,-0.02103051306903362,0.06423194141387939
1684107928804741000,8.5847412109375,-0.9019692982345819,0.48456046324372287,-0.7223568274497986
1684107928814759000,8.594759033203125,-1.4887760839879511,0.7585211967647075,-1.303299689605832
1684107928824776000,8.60477587890625,-1.828129034873843,0.6930535760760307,-1.5584744741141796
1684107928834794000,8.6147939453125,-1.8380778896972536,0.5334148027837277,-1.5623346566736698
1684107928844812000,8.62481201171875,-1.5006222968652843,0.7065531091183423,-1.013330655092001
1684107928854829000,8.6348291015625,-0.9602429157659411,1.168085163474083,-0.13408055366575716
1684107928864846800,8.644846923828124,-0.3151043525531888,1.6586860759258268,0.2543307348996401
1684107928874865200,8.654865234375,0.18104104228317736,1.9488222837001083,0.30221067644953725
1684107928884882000,8.6648818359375,0.3730520991310477,1.7794839541703462,0.3154068426311016
1684107928894900000,8.67489990234375,0.4259796794593334,1.016565983751416,0.22981004162728785
1684107928904918000,8.68491796875,0.357482481816411,-0.031055647999048232,-0.1894008743494749
1684107928914936000,8.69493603515625,0.15481120700538156,-0.567910946625471,-0.5672890153348445
1684107928924953000,8.704953125,-0.18762100519537925,-0.3872235400855541,-0.7725766101241112
1684107928934971100,8.71497119140625,-0.5011632229983807,0.6777046157747507,-0.8894809880614281
1684107928944989000,8.724989013671875,-0.6810115483656525,1.9272364748358726,-1.2462930232703684
1684107928955006200,8.735006103515625,-0.7678808535233139,2.8184587536066767,-1.5898977863818406
1684107928965024000,8.74502392578125,-1.0015168831795453,3.190702166703343,-2.067923879420757
1684107928975042000,8.7550419921875,-1.3831991557508707,2.9140450337052344,-2.5803841569811103
1684107928985059000,8.76505908203125,-1.6130527442589402,1.918162357020378,-3.0004817926645275
1684107928995077000,8.7750771484375,-1.504921747624874,0.8121195159614085,-2.807192678704858
1684107929005095000,8.785094970703126,-1.3029653430849313,0.010929390293359756,-2.3453619336634874
1684107929015112200,8.7951123046875,-1.4170070250675082,-0.3888753989458084,-1.5619652388393879
1684107929025130000,8.8051298828125,-1.7283078936845062,-0.4998913033664226,-0.6258826586008072
1684107929035148000,8.81514794921875,-2.0580670867949724,-0.24577391895651815,0.39104689776599405
1684107929045166000,8.825166015625,-2.265258177118003,0.41093233245313165,1.3285545423716305
1684107929055182800,8.835182861328125,-2.250066160944104,0.9218559019654988,1.4731266794353723
1684107929065201200,8.845201171875,-1.9666110383689401,0.8616939864695071,0.6312333719789981
1684107929075219200,8.85521923828125,-1.4927368043124676,0.28427871391773224,-0.16570961763858794
1684107929085236000,8.865236083984374,-1.009480993926525,-0.5882961475282907,-0.5934849483430386
1684107929095254000,8.87525390625,-0.7394155142784118,-1.4644441912859678,-0.6662316201239824
1684107929105272000,8.88527197265625,-0.6618722558706999,-2.158071767857671,-0.4694494033515453
1684107929115289000,8.8952890625,-0.8458452599525451,-2.5491677654623985,-0.2698059519290924
1684107929125307100,8.90530712890625,-1.161677049997449,-2.513112117218971,0.28368600872159
1684107929135325000,8.915324951171876,-1.6106412992030381,-1.9244483054220676,1.2555728927910328
1684107929145342200,8.92534228515625,-1.9384879366904495,-1.049763319954276,1.7440151659041643
1684107929155360000,8.935360107421875,-2.022797035971284,-0.4063262999624014,1.3001093691319225
1684107929165378000,8.9453779296875,-1.9596447064876554,-0.01589490374624729,0.5066448692798614
1684107929175395800,8.955395751953125,-1.7284721443355082,0.12491057426035404,-0.28673429037630555
1684107929185413000,8.9654130859375,-1.283058865609765,0.006091887134313583,-1.0506272433072328
1684107929195431000,8.975430908203125,-0.841324567657709,-0.29090836119055746,-1.593364001187682
1684107929205449200,8.98544921875,-0.5090022460609674,-0.696163817051053,-1.9962848766207695
1684107929215466000,8.995466064453124,-0.2377460953235626,-1.119783197119832,-2.2631688036233184
1684107929225484000,9.005484130859376,-0.13975392312705515,-1.4805904394447802,-2.1606325582563874
1684107929235502000,9.015502197265626,-0.2704401581794023,-1.5828782630085945,-1.5844272460162638
1684107929245519000,9.02551904296875,-0.5456301412343979,-1.282374390476942,-0.6750701756179333
1684107929255537200,9.035537109375,-0.8074298968404531,-0.7858394118010997,0.10536825392246246
1684107929265555200,9.04555517578125,-1.0427198311835526,-0.2772825714200735,0.45130467485189435
1684107929275572000,9.055572021484375,-1.3446218800753353,0.054879006657004355,0.38348201546967026
1684107929285590000,9.065590087890625,-1.6307237177670002,0.09557809679210186,-0.14727496628165243
1684107929295608000,9.075608154296875,-1.8525585427314042,-0.21524843231141566,-1.003022611567378
1684107929305626000,9.085626220703125,-1.9919208361923693,-0.7176455810189246,-1.862809303110838
1684107929315643100,9.09564306640625,-1.9838322222828864,-1.3222621642291545,-2.437825113305449
1684107929325661000,9.105660888671874,-1.8345885862767695,-1.9529963545143603,-2.709212196946144
1684107929335679000,9.115678955078126,-1.7429612729370594,-2.4590701459079978,-2.7302859646350144
1684107929345696000,9.125696044921876,-1.7143243765175342,-2.672054140418768,-2.2886410985320804
1684107929355714000,9.135714111328125,-1.7638140913516283,-2.316895133113861,-1.4471704004019499
1684107929365731800,9.14573193359375,-1.9667484010130165,-1.476650177386403,-0.4940104286342859
1684107929375749000,9.1557490234375,-2.2341531370192764,-0.5682143134862184,0.13331482999026775
1684107929385767000,9.165766845703125,-2.2505746949881313,0.14213701887130736,0.26198095739185806
1684107929395785200,9.17578515625,-2.073707138997316,0.671129913559556,-0.016304653590917588
1684107929405803000,9.185802978515625,-1.9071300908744333,0.8568611594855785,-0.6422510250777006
1684107929415820000,9.195820068359374,-1.7515999219447373,0.4235749564051628,-1.375154965505004
1684107929425838000,9.205838134765624,-1.5309668739855289,-0.547336360630393,-2.111712752264738
1684107929435856100,9.215856201171874,-1.3216466626793146,-1.5074620797574518,-2.7925848921597
1684107929445873000,9.225872802734376,-1.1952420504689216,-2.081129982474446,-3.284282952198386
1684107929455891200,9.23589111328125,-1.113276299443841,-2.15622643225193,-3.6434564558416604
1684107929465909000,9.245908935546876,-1.1011346107512712,-1.6210300067484378,-3.496671903425455
1684107929475926300,9.25592626953125,-1.1388654987305402,-0.7336193952202796,-2.997336480376124
1684107929485944000,9.265944091796875,-1.3376508720189333,-0.13229191668331622,-2.474254855558276
1684107929495962000,9.275962158203125,-1.7237445312917232,-0.10699614738523959,-2.0245792432129384
1684107929505979100,9.285979248046875,-2.0720453432649375,-0.579580341631174,-1.781362607523799
1684107929515997000,9.295996826171875,-2.3940718962967393,-1.325845867934823,-1.8215110780388115
1684107929526015000,9.306014892578125,-2.739644744610786,-2.0032050312727687,-2.0685329512298107
1684107929536033300,9.316033203125,-3.128161247116327,-2.4385768084555863,-2.394419686821103
1684107929546050000,9.326050048828124,-3.457653313723206,-2.563808869755268,-2.7413205688685176
1684107929556067800,9.33606787109375,-3.673609602043032,-2.429172435772419,-3.0486621784657237
1684107929566086100,9.346086181640626,-3.8093238943904635,-2.1324971816182137,-3.275847716808319
1684107929576103000,9.35610302734375,-3.8680344420343635,-1.7991881870716808,-3.3648248079001903
1684107929586121000,9.366120849609375,-3.8962446374744175,-1.6931109080970286,-3.1842689187854525
1684107929596139000,9.376138916015625,-3.782634624907374,-1.9450673150807618,-2.603451144313812
1684107929606156000,9.386156005859375,-3.622119653302431,-2.456544426822662,-1.9589123005598783
1684107929616174000,9.396174072265625,-3.40643399861753,-2.926712792098522,-1.3546294793486595
1684107929626192100,9.406192138671875,-3.081116587346792,-3.170702165725827,-0.804259450110793
1684107929636209000,9.416208984375,-2.598565125837922,-3.066157503145933,-0.10973989313542842
1684107929646227200,9.426227294921874,-2.209047337335348,-2.5847043582677838,0.4839548985660076
1684107929656245000,9.436244873046874,-1.9471125571727752,-1.8994021269708872,0.8726789063423871
1684107929666263000,9.446262939453124,-1.9242595048516988,-1.2859464037448167,1.0634463928699494
1684107929676280000,9.456280029296876,-2.0669401290804146,-0.8819488389909267,1.2400690341889857
1684107929686298000,9.466298095703126,-2.032914525359869,-0.6646224313616752,1.4562725752681493
1684107929696316000,9.47631591796875,-1.7747423126012085,-0.672420537891984,1.6874135732382536
1684107929706333200,9.486333251953125,-1.2664222035855055,-0.8636959739416837,1.8102198686957358
1684107929716351000,9.49635107421875,-0.41444881614148615,-1.0820996554136275,1.6372095726549625
1684107929726369000,9.506369140625,0.44248599310219283,-1.2164496736705301,1.174144317382574
1684107929736386000,9.516385986328125,1.0483914470791815,-1.1932441546499728,0.6275795256465673
1684107929746403800,9.52640380859375,1.2156009478867054,-0.8928028259605169,0.3789426184743643
1684107929756422100,9.536422119140624,1.0338654935985803,-0.38509997206032276,0.3580564823120832
1684107929766439000,9.54643896484375,0.5984551379710435,-0.009364040672779083,0.3385802129477262
1684107929776457000,9.55645703125,-0.04642389752268791,0.019044307687878608,0.21218904474079608
1684107929786475000,9.56647509765625,-0.805108175894618,-0.3286298968195915,-0.06981237189471722
1684107929796493000,9.5764931640625,-1.4306418749272822,-0.8487591015726328,-0.45241760452985763
1684107929806510000,9.586510009765625,-1.8812305104643106,-1.219911212301254,-0.8714607627242803
1684107929816528100,9.596528076171875,-2.2805209204405545,-0.5943371812582016,-1.442207225036621
1684107929826546000,9.6065458984375,-2.212391387066245,-0.6250093828976154,-1.4667109671741723
1684107929836563200,9.616563232421875,-2.083925750672817,0.09138064510226249,-1.318292676076293
1684107929846581000,9.6265810546875,-1.6985779413312672,0.8666834653198718,-0.8001753956675529
1684107929856599000,9.63659912109375,-1.2719742847546935,1.5693331372588872,-0.2637310159295797
1684107929866616000,9.646615966796874,-0.9931745867699384,1.9789625704199074,-0.05693769275248051
1684107929876634000,9.656634033203124,-0.6228603881701826,2.0158184291303156,0.01801905629336834
1684107929886652000,9.66665185546875,-0.09299041838645934,1.5011574266552925,0.03553717732727527
1684107929896669200,9.676669189453126,0.5137058937072754,0.2724807240962982,-0.3522662084728479
1684107929906687000,9.68668701171875,0.9474056460246443,-1.084683826687932,-0.5428975014001131
1684107929916705000,9.696705078125,1.103624674001336,-1.8417267675936222,0.0591249736636877
1684107929926723000,9.70672314453125,0.9581661094918846,-2.1059055272907017,0.8234177395671606
1684107929936740000,9.716739990234375,0.4970768304675817,-1.845449587509036,1.4714146148204803
1684107929946758100,9.726758056640625,-0.09204846136122942,-1.0524030208081006,1.4056044643044472
1684107929956776200,9.736776123046875,-0.6129501117914915,0.0745271254569292,0.8720996451497077
1684107929966793000,9.74679296875,-0.9146896635979413,1.1083575477421284,0.49574295151531694
1684107929976811000,9.75681103515625,-0.9301938144609332,1.8079788117706774,0.3272404882878065
1684107929986829000,9.7668291015625,-0.7157756954938173,1.963345899093151,0.3417892381221056
1684107929996846000,9.77684619140625,-0.3075131667718291,1.3397113116800785,0.3498398581087589
1684107930006864100,9.786864013671876,0.21101503252536058,0.38920916094481944,0.062301850134134286
1684107930016882000,9.7968818359375,0.5738499812856316,-0.2107715791583061,-0.2925239796936512
1684107930026899200,9.806899169921875,0.7382333187565207,-0.3300719123214483,-0.5729904418468476
1684107930036917000,9.8169169921875,0.8789537488281727,0.15634557696580886,-0.31454525736570355
1684107930046935000,9.82693505859375,0.8994991087287664,0.8804682450443506,0.30812077727615833
1684107930056952800,9.836952880859375,0.8003425689280033,1.2660568774044514,0.9043120619684457
1684107930066970000,9.84697021484375,0.615681290321052,1.0121949290603398,1.1914946806341409
1684107930076988000,9.85698779296875,0.442735583949089,0.2937304328739643,0.9982990901768207
1684107930087006200,9.867006103515624,0.30165158126205205,-0.44574236454963684,0.6242763924479484
1684107930097023000,9.87702294921875,0.2044391612663865,-0.7963081988453865,0.3070879270970821
1684107930107041000,9.887041015625,0.24671178432852028,-0.4946598324537277,0.33263094915449615
1684107930117059000,9.89705908203125,0.3318763313949108,0.21744448105096817,0.6878004778534174
1684107930127076000,9.907076171875,0.2965454902946949,0.7486117971688508,0.834299199065566
1684107930137094100,9.91709423828125,0.19543723190426826,0.8086527166336774,0.6791238349229097
1684107930147112200,9.9271123046875,0.1764554680585861,0.5227098688960075,0.3781839090615511
1684107930157129000,9.93712890625,0.275472599388659,-0.03974807302057743,0.23544015646874902
1684107930167147300,9.947147216796875,0.46605318504199383,-0.5751274538755416,0.5056774855524301
1684107930177165000,9.9571650390625,0.6547612548217177,-0.8660591959416866,1.0703875903099775
1684107930187183000,9.96718310546875,0.5821677277758717,-0.8290081069201231,1.784150776937604
1684107930197200100,9.9772001953125,0.18676292706131933,-0.4845750762909651,2.4770494547128674
1684107930207218000,9.987218017578124,-0.3463631219089031,-0.07503332141339779,2.7131927910149094
1684107930217236000,9.997236083984374,-0.7696867339015007,0.12159575062394141,2.020329184553027
1684107930227253000,10.0072529296875,-1.0323309775076805,0.13320260178744792,1.026173185530305
1684107930237271000,10.01727099609375,-1.0110051347538829,0.25597908662855623,0.27756781810224057
1684107930247288800,10.027288818359375,-0.603094488209486,0.6086749186903238,0.006166705936193466
1684107930257306000,10.03730615234375,0.21684227737411854,1.0907155080676079,0.4834352586060762
1684107930267324000,10.047323974609375,1.1178967988513409,1.5069050303965805,1.1330454142749309
1684107930277342200,10.05734228515625,1.7902970246076584,1.7021505391210316,1.3443828106224536
1684107930287360000,10.067360107421875,2.0961983722686766,1.4802414798766375,1.077307744961977
1684107930297377000,10.077376953125,2.0832441981494427,0.7437778011411428,0.40231881788671014
1684107930307395000,10.08739501953125,1.9406185189783571,-0.05580021315515041,-0.25089549975395203
1684107930317413000,10.0974130859375,1.6336381439089773,-0.5700999811023474,-0.7704717467993497
1684107930327430000,10.107429931640626,1.2523755580544471,-0.6030892275124788,-0.8984393705427646
1684107930337448200,10.1174482421875,0.9652303487896918,0.09727496383786201,-0.06713818424940109
1684107930347466000,10.127466064453126,0.7691524078290909,1.1381249094963073,0.7736310876131057
1684107930357483300,10.137483154296875,0.6923731195311993,1.907300771266222,0.998816976571083
1684107930367501000,10.1475009765625,0.8208885133504867,2.321606379544735,0.7372650582462549
1684107930377519000,10.15751904296875,1.1051625510931014,2.2707605739265677,0.3121475485742092
1684107930387536100,10.1675361328125,1.4169710769712924,1.5127800599098205,-0.18772505009174345
1684107930397554200,10.17755419921875,1.583591379714012,0.37844577486813064,-0.6183586928367615
1684107930407572000,10.187572021484375,1.5998329049408435,-0.14012217191755771,-0.1651964074194431
1684107930417590000,10.197590087890624,1.416224057996273,-0.0942559082776308,0.6142828216999768
1684107930427607000,10.20760693359375,0.9926888490796089,0.27177169904410836,1.158024957230687
1684107930437624800,10.217624755859376,0.5131295551240443,0.6329436830282211,1.1870043834775685
1684107930447643100,10.22764306640625,0.1446434304679744,0.5977496200501918,0.5367775572150946
1684107930457660000,10.237659912109375,0.002947141101490706,0.2690431508630514,-0.22883915076851843
1684107930467678000,10.247677978515625,0.05887654272741638,-0.07234042906761169,-0.7821265287578105
1684107930477696000,10.257696044921875,0.30728666453957554,-0.17789222286343573,-0.9389543362826108
1684107930487713000,10.267713134765625,0.7239338675081729,0.19460604177713392,-0.5114432094722986
1684107930497731000,10.27773095703125,1.030000050342083,0.887778275796771,0.06698620855808257
1684107930507749000,10.2877490234375,1.1888345215141773,1.6334855836957691,0.8120283305466175
1684107930517766000,10.297765869140624,1.1120353594720362,2.121584157937765,1.5695710376679897
1684107930527784200,10.3077841796875,0.8966168312907219,1.9093062658697366,1.9626374585628508
1684107930537802000,10.317802001953124,0.613883593249321,0.858743904492259,1.8332453549742698
1684107930547820000,10.327820068359374,0.3154647102981806,-0.3846031284540891,1.6462585560292005
1684107930557837000,10.337837158203126,0.1035106433570385,-1.150952826887369,1.7245137620985507
1684107930567855000,10.347855224609376,-0.12477321161627769,-1.3133441137582063,1.9862439595997332
1684107930577873000,10.357872802734375,-0.22604162900447844,-0.8119891675800085,2.4953029042840003
1684107930587890200,10.36789013671875,-0.1656938355475664,0.11414835722744464,2.95926013996005
1684107930597908000,10.377907958984375,0.03850888661444187,0.8543921390235424,2.633999427312612
1684107930607926000,10.387926025390625,0.2651490660339594,1.001432127505541,1.4065508052438496
1684107930617943000,10.397943115234375,0.5484791009247303,0.8918675909370184,0.45386195811927316
1684107930627961000,10.407961181640625,0.845645937988162,0.7560901702255011,-0.16535247476398943
1684107930637979100,10.417979248046874,1.1963204933553933,0.5463531948119401,-0.460098806682229
1684107930647996000,10.427995849609376,1.5150217013567686,0.3122048317193985,-0.24640227998793124
1684107930658014000,10.438013916015626,1.7649959946125744,0.14726210680007934,0.13819909490048884
1684107930668032500,10.448032470703126,1.845190059790015,0.03607727555334568,0.518702971342206
1684107930678050600,10.458050537109376,1.7838824813902376,-0.006550152295827865,0.7516238384664058
1684107930688067300,10.4680673828125,1.470156139191985,-0.013741525104641914,0.7791255933761596
1684107930698085600,10.478085693359375,0.9800374572992324,0.02698971373438835,0.617467881476879
1684107930708103400,10.488103515625,0.43613278815057127,0.11191665265262127,0.3316717487335205
1684107930718120400,10.498120361328125,-0.13213815089371053,0.17588731278181075,0.09601473464369774
1684107930728138500,10.508138427734375,-0.6044622328987345,0.3426204282492399,0.08183657168745995
1684107930738156500,10.518156494140625,-0.804149559995532,0.6787257755160331,0.5034072025328874
1684107930748173600,10.528173583984374,-0.6995294940918684,1.3209551732838154,1.3467676599323748
1684107930758191400,10.53819140625,-0.37523616517186165,2.147328840047121,1.912792938941717
1684107930768209400,10.54820947265625,0.08632979145348071,2.647150000786781,2.313523026332259
1684107930778226400,10.558226318359376,0.6171119807112961,2.911650832045078,2.6419968558073044
1684107930788244500,10.568244384765626,1.1200678592801094,3.036642070326209,2.8689322187811133
1684107930798262300,10.57826220703125,1.4894921233028173,3.0245874753952027,2.9398025752961634
1684107930808280600,10.588280517578125,1.6925930217027663,2.995941811147332,2.8141934973776337
1684107930818297300,10.59829736328125,1.7610475492477415,2.9210435142904516,2.415041034567356
1684107930828315400,10.6083154296875,1.7579197726160287,2.8090976355433463,1.8773826028645038
1684107930838333400,10.61833349609375,1.67304076449275,2.693606047013402,1.2781968125313519
1684107930848350500,10.6283505859375,1.5954396384179592,2.6183055990964172,0.8921680351883172
1684107930858368500,10.638368408203124,1.549057241949439,2.49856687451601,0.8534183255553245
1684107930868386600,10.648386474609374,1.4935446135640142,2.3137907373577353,1.1121353127151727
1684107930878403300,10.6584033203125,1.361222155611962,2.146653717264533,1.4564508544445036
1684107930888421600,10.668421630859376,1.0908013597201556,2.1019208415687083,1.8042822953402995
1684107930898439400,10.678439453125,0.7288713969755918,2.1348709250122306,2.095235664716363
1684107930908456400,10.68845654296875,0.32875929535292087,2.222920964387059,2.168676163980365
1684107930918474500,10.698474609375,-0.03729709967188537,2.352136542364955,2.048002204376459
1684107930928492500,10.708492431640625,-0.2899796289730817,2.436552024629712,1.8017179978102444
1684107930938510300,10.71851025390625,-0.405331516771391,2.5273639299333093,1.6700497659832239
1684107930948527600,10.728527587890625,-0.3620516163628548,2.750837754276395,1.7145833197146654
1684107930958545400,10.73854541015625,-0.2257247450750321,3.0304250955075025,1.8531775514125823
1684107930968563500,10.7485634765625,-0.05606149443984031,3.0758120511978864,1.8570786505043506
1684107930978580500,10.75858056640625,0.18164492646045982,2.9069769950151443,1.6989970435261725
1684107930988598300,10.768598388671874,0.45695239841528235,2.735195363986492,1.5721967099964618
1684107930998616600,10.778616455078126,0.7728308771461248,2.4648954910606142,1.3553455186635255
1684107931008633300,10.78863330078125,1.0628870054215191,1.8443974481076002,0.9334043009400367
1684107931018651400,10.7986513671875,1.1912713932722807,0.9141308606714009,0.45414311314821243
1684107931028669400,10.80866943359375,0.9619377369850873,0.07131985384821891,0.41247547024190423
1684107931038687500,10.8186875,0.5516852034896612,-0.4776707037299871,0.742237001439929
1684107931048704500,10.82870458984375,0.0924608415544033,-0.7718406970649957,1.1235843429684638
1684107931058722600,10.83872265625,-0.31900691294968125,-0.9426748181104659,1.373925715970993
1684107931068740400,10.848740234375,-0.5300953029721975,-1.087594745698571,1.288127839437127
1684107931078757600,10.858757568359374,-0.48368956216070796,-1.0073860674738884,0.9260334799110889
1684107931088775400,10.868775390625,-0.2210369891176,-0.7402958042442798,0.5362888969153166
1684107931098793500,10.87879345703125,0.18410981873665003,-0.4070435083210468,0.23930033902823925
1684107931108810500,10.888810546875,0.5935574290573596,-0.16532207962572573,0.11251578758955001
1684107931118828500,10.89882861328125,1.0068763643860816,0.09495908811092377,0.06482289304435253
1684107931128846300,10.908846435546875,1.3061445576429367,0.23234745115041733,0.06112170043885708
1684107931138863600,10.918863525390625,1.4469324999928475,0.14536708683371544,-0.10329787738919258
1684107931148881400,10.92888134765625,1.4819044446527958,-0.01120586914718151,-0.256050398299098
1684107931158899500,10.9388994140625,1.2943448142558336,-0.18724632666409013,-0.36470892593860627
1684107931168917500,10.94891748046875,0.9484428801178931,-0.3643973757714033,-0.3319166634052992
1684107931178934500,10.9589345703125,0.57458969373703,-0.40809272511303424,-0.2566641462832689
1684107931188952300,10.968952392578124,0.20830723487138747,-0.22712533258795736,-0.047508185628056525
1684107931198970600,10.978970703125,-0.0170475854792865,0.16174539018273354,0.12883446970582008
1684107931208987400,10.9889873046875,0.04539513899683952,0.641834260970354,0.24705928259193896
1684107931219005700,10.999005615234376,0.36738369810581206,1.027111343163252,0.4289502197027206
1684107931229023500,11.0090234375,0.7928174341201781,1.1235738215744495,0.9876701441347598
1684107931239040300,11.019040283203125,1.0701204638063908,0.6928945861220359,1.517775383979082
1684107931249058600,11.02905859375,0.9575964929103851,0.1350508600026369,1.7339000146031378
1684107931259076400,11.039076416015625,0.543597210634686,-0.10417466022372245,1.4345897357702255
1684107931269093600,11.04909375,-0.07911383219268173,0.15717793613672257,0.9022019379466771
1684107931279111400,11.059111328125,-0.6556909368872642,0.7291951490372419,0.3842337106198072
1684107931289129500,11.06912939453125,-0.9591594313781708,1.3690104714006184,0.10059913982450962
1684107931299147300,11.079147216796875,-1.01592476323843,1.9519038831025362,0.08104629809260368
1684107931309164500,11.08916455078125,-0.978197382390499,2.38136965111196,0.0985650036484003
1684107931319182300,11.099182373046874,-0.9676455932378768,2.4419278724491593,-0.0008732757031917572
1684107931329200400,11.109200439453126,-1.0566134050447493,2.090433232870698,-0.3774251996487379
1684107931339217400,11.119217529296876,-1.1700210999727247,1.7088403921484947,-0.8844862485140561
1684107931349235500,11.1292353515625,-1.2647943101227284,1.582442794200778,-1.2400544211417437
1684107931359253500,11.13925341796875,-1.2885036870121955,1.6747615969359875,-1.4952122545152902
1684107931369270500,11.1492705078125,-1.243098172751814,1.9276579151183366,-1.4825298830747604
1684107931379288300,11.159288330078125,-1.2347909476555883,2.2106769843637943,-1.382204299494624
1684107931389306600,11.169306640625,-1.3409468448244035,2.477691844269633,-1.2840461230814457
1684107931399323400,11.179323486328125,-1.5290918738938868,2.6381998016119,-1.5060563046127557
1684107931409341700,11.189341796875,-1.668301753272116,2.6365257309198378,-2.0432909579455854
1684107931419359500,11.199359375,-1.6270051356352864,2.51816823156476,-2.6106904479175803
1684107931429377500,11.20937744140625,-1.329064829981327,2.293670324870944,-2.8577848018229006
1684107931439394600,11.21939453125,-0.9734627550840377,1.7714724971503018,-2.5704361789405343
1684107931449412600,11.22941259765625,-0.6055886431127786,0.7447165432959795,-1.7857640573531388
1684107931459430400,11.239430419921876,-0.37111879298090933,-0.3198065388947725,-0.6910738004356622
1684107931469447400,11.249447509765625,-0.38836540359705685,-1.0434101515352725,0.44406712481379507
1684107931479465500,11.259465576171875,-0.6059528002500534,-1.2956734325110912,1.5633593235462904
1684107931489483300,11.269483154296875,-1.0116440171793102,-1.121094279718399,2.6976404170960184
1684107931499500500,11.27950048828125,-1.4377180969238281,-0.731037562033534,3.6278403690367935
1684107931509518300,11.289518310546875,-1.73964966417104,-0.44069151090085507,3.8068361692279575
1684107931519536400,11.299536376953125,-1.830639264129102,-0.4586182127356529,3.2430957862854
1684107931529554400,11.309554443359374,-1.721529193329811,-0.7428904969125986,1.8923387644559144
1684107931539571500,11.319571533203124,-1.4688304435461759,-1.1973621113628148,0.7656447650343179
1684107931549589500,11.329589599609376,-1.1152461382120846,-1.5980045204699038,0.15549100596308707
1684107931559607600,11.339607666015626,-0.6832035054519772,-1.7651210822969674,-0.2392500701457262
1684107931569624300,11.349624267578125,-0.22404724031686782,-1.6255647275686262,-0.300941094905138
1684107931579642600,11.359642578125,0.18499913225919007,-1.1438596537560224,-0.00014496142864227294
1684107931589660400,11.369660400390625,0.4549810252770781,-0.36057284904718395,0.3626566695839166
1684107931599677400,11.379677490234375,0.6007257132515311,0.4893704938739538,0.44438101306855676
1684107931609695500,11.389695556640625,0.5432713031485676,1.051469539350271,0.1342325293570757
1684107931619713500,11.399713623046875,0.2753223772630095,1.2129115626722573,-0.4384866943329572
1684107931629730600,11.40973046875,-0.080581310929358,1.0263584789693354,-0.9223767109692096
1684107931639748600,11.41974853515625,-0.3878691445127129,0.6462813035070896,-1.0208376697212458
1684107931649766400,11.429766357421874,-0.5684653656378388,0.35218320636451245,-0.7091659219652414
1684107931659784400,11.439784423828126,-0.733434101781249,0.34517420438528057,-0.35306583441793915
1684107931669806000,11.44980615234375,-0.8753709219053387,0.45449733341336246,-0.26833587937653064
1684107931679824100,11.45982421875,-1.0058350386396049,0.5540133541762828,-0.3922223712861538
1684107931689842000,11.469842041015625,-1.0545897171974181,0.5948778640061616,-0.5579840113729239
1684107931699859200,11.479859130859374,-1.1194017965868115,0.5508791478037833,-0.6334820276886224
1684107931709877000,11.489876953125,-1.1353107288584112,0.47435354200601576,-0.48790451297461984
1684107931719895000,11.49989501953125,-0.9504416527196764,0.4495861804962158,-0.4275327541202307
1684107931729912000,11.509912109375,-0.7768436199188232,0.4891214875489473,-0.5574082573115825
1684107931739930000,11.51993017578125,-0.797351570418477,0.61864101690948,-0.8764508260965347
1684107931749948000,11.529947998046875,-0.9081769207030534,0.8047598008483647,-1.313775490912795
1684107931759966200,11.53996630859375,-1.0091390486210583,1.0285603729277848,-1.640567650911212
1684107931769983000,11.54998291015625,-1.03884562009871,1.2000824762374163,-1.8185148188322782
1684107931780001300,11.560001220703125,-1.0431637755587697,1.2443553332060575,-1.5914830097466706
1684107931790019000,11.57001904296875,-1.0223340457588435,1.1234008030951022,-0.9679302553981542
1684107931800035800,11.580035888671874,-0.8938491201430558,0.9766039757192134,-0.2806505865484476
1684107931810054100,11.59005419921875,-0.8187775125458836,1.0250497344583271,0.3754711429715156
1684107931820072000,11.600072021484374,-0.7966486828461289,1.1192530357658863,0.46754503103494643
1684107931830089200,11.610089111328126,-0.5438467649489641,1.2046417469769715,-0.3509504496991634
1684107931840107000,11.62010693359375,-0.27514292904287574,1.3301216455578804,-1.3695382946670054
1684107931850125000,11.630125,-0.29027590850591656,1.345782740548253,-2.1422750637888908
1684107931860142000,11.64014208984375,-0.6956050141245126,1.0945575704485178,-2.3690695569872853
1684107931870160100,11.65016015625,-1.3422475521594286,0.49142976449131964,-2.175066741800308
1684107931880178000,11.660177978515625,-2.044576321581006,-0.20303426290452478,-1.7723697382509707
1684107931890196000,11.670196044921875,-2.6400702716588973,-0.8334884672045707,-1.2362293098956345
1684107931900213000,11.680212890625,-3.0903359588518735,-1.2523510081350802,-0.5488099403142929
1684107931910231000,11.69023095703125,-3.2644851957947014,-1.4732880074769257,0.05662205093204975
1684107931920249000,11.7002490234375,-3.0961826390534637,-1.4559481656193733,0.4744049799323082
1684107931930266000,11.71026611328125,-2.535964585018158,-1.2379057186752558,0.526148026651144
1684107931940284000,11.720283935546876,-1.7837015718653797,-0.9087555973738431,0.3774602709621191
1684107931950302200,11.73030224609375,-1.512066650943458,-0.5972697275787592,0.09753916773200035
1684107931960319000,11.740319091796875,-1.5601234103649855,-0.5394201806783676,-0.24683657975196838
1684107931970337300,11.750337158203125,-1.3630091851592063,-0.5538239690840244,-0.3942869026005268
1684107931980355000,11.76035498046875,-1.0061989035159349,-0.6118541332483292,-0.3709767541617155
1684107931990373000,11.770373046875,-0.6547019258499145,-0.8465893563181162,-0.4017839803576469
1684107932000390100,11.78039013671875,-0.33968671288490293,-1.3760837707877158,-0.48075054956674573
1684107932010408200,11.790408203125,-0.13894903648495674,-2.1016385174959895,-0.5587094030380249
1684107932020426000,11.800426025390625,-0.12049041973054408,-2.835825483471155,-0.5770441011518239
1684107932030443000,11.810443115234374,-0.4414303465694189,-3.316150501102209,-0.49703649845719333
1684107932040461000,11.8204609375,-0.772017514936626,-3.392145361024141,-0.24010464114844798
1684107932050478800,11.830478759765626,-0.7801116818040609,-3.0253052682757375,0.16546002679169178
1684107932060496100,11.84049609375,-0.5891749761894345,-2.429036242172122,0.10630816512107849
1684107932070514000,11.850513916015625,-0.2825888611346483,-1.8105922091394662,-0.38435821378231044
1684107932080532000,11.860531982421875,0.1416848911896348,-1.2009434769809246,-0.6782745246171951
1684107932090549000,11.870549072265625,0.17832009288668632,-0.8298170852154493,-0.6534925500601529
1684107932100567000,11.880567138671875,0.19911592041701076,-0.7885287970155477,-0.5676935044825077
1684107932110585000,11.890585205078125,0.3994984997689724,-0.7497013459712266,-0.304598448368907
1684107932120603100,11.90060302734375,0.5814847139477729,-0.6845540432780981,0.05500409434139728
1684107932130620000,11.910619873046874,0.8889680701032281,-0.9183768276780844,0.027820903861522674
1684107932140638200,11.92063818359375,0.7991635882765055,-1.2503846764981745,-0.4702981291353702
1684107932150656000,11.930656005859374,0.3203460525989532,-1.400434952712059,-0.9582879823058843
1684107932160673000,11.940673095703126,-0.05378536620140075,-1.2773977711081503,-1.1604600754231214
1684107932170691000,11.950691162109376,-0.2505769353240728,-1.037681837016344,-1.2279957345575094
1684107932180709000,11.960709228515626,-0.3102168727725744,-1.0045148959517478,-1.2192951262295246
1684107932190726100,11.97072607421875,-0.05345861846506595,-1.5600222880780696,-1.0698732110470532
1684107932200744200,11.980744140625,0.36294045496135946,-2.4158622878223657,-0.8015379161924123
1684107932210762000,11.990761962890625,0.6717705495506525,-3.0036691905289885,-0.21090952632427215
1684107932220779000,12.000779052734375,0.790619047293067,-3.152380327093601,0.5624246241688728
1684107932230797000,12.010797119140625,0.7430214298158884,-2.8101714022547006,1.5048065968126059
1684107932240815000,12.020815185546875,0.29888825402855873,-1.9969927326291799,2.11517838254869
1684107932250833200,12.030833251953124,-0.33327743036448954,-1.0467670607477426,1.6467676745951174
1684107932260850000,12.040849853515626,-0.9483639696627855,-0.3461351583719253,0.8474860128968954
1684107932270868000,12.050867919921876,-1.6163465251073241,0.11666589300632477,0.01742342848777771
1684107932280886000,12.060885986328126,-2.009137636192143,0.3833499135226011,-0.8129396001726389
1684107932290903000,12.070903076171875,-1.9459426366105674,0.07623743650615215,-1.9083219310075044
1684107932300921000,12.080921142578125,-1.5934420348599552,-0.883367473617196,-3.327758521309495
1684107932310939100,12.090939208984375,-1.1656745952010155,-1.4501865333527326,-4.325444448024034
1684107932320956000,12.100955810546875,-0.8073957023099064,-1.3549404449939726,-4.522861455568671
1684107932330974200,12.11097412109375,-0.565878271754086,-1.0298089116841553,-3.7611809179902074
1684107932340992000,12.120991943359375,-0.5087035553753376,-0.9231067788094282,-2.9777620113343
1684107932351010000,12.131010009765625,-0.677711630037427,-1.1194359911173581,-2.6680647785216567
1684107932361027000,12.141027099609374,-0.9859002118527889,-1.3797177433758974,-2.7604987320691348
1684107932371045000,12.151045166015624,-1.318762631675601,-1.4679583368867635,-3.0344314085394144
1684107932381063000,12.16106298828125,-1.6123989565253256,-1.5138994193285702,-3.0609207715362308
1684107932391080200,12.171080078125,-1.638547543260455,-1.8557436025083065,-2.6337936756074427
1684107932401098000,12.181097900390625,-1.3633084603667258,-2.6037013196825978,-1.9004098427087068
1684107932411116000,12.191115966796875,-1.1896730181649326,-3.473810667797923,-1.2888187443107366
1684107932421133000,12.201133056640625,-1.3117422315195202,-4.21053095164299,-0.8141220879554748
1684107932431151000,12.211151123046875,-1.651149835202098,-4.736384963783622,-0.4476081584215164
1684107932441169000,12.2211689453125,-2.0456775608211752,-5.048748785457015,-0.1535287659794092
1684107932451187200,12.231187255859375,-2.4213810512438414,-5.066721079999208,-0.3167348763644695
1684107932461204000,12.241203857421874,-2.83025791247189,-4.583412662643194,-1.0550661025375128
1684107932471222300,12.25122216796875,-3.2757068470329043,-3.606682430195808,-1.5851912161260842
1684107932481240000,12.261239990234374,-3.514111698526144,-2.454958034414053,-1.6660720945239067
1684107932491256800,12.2712568359375,-3.3132229232177135,-1.5884855814963579,-1.7008324422597885
1684107932501275100,12.281275146484376,-2.6770938881516453,-0.9831664029747247,-1.9904419958114623
1684107932511293000,12.29129296875,-1.6608888466671108,-0.7334884623169898,-2.283901210528612
1684107932521310200,12.301310302734375,-0.48120209272652864,-0.6977431951969861,-2.246841353678703
1684107932531328000,12.311327880859375,0.6570984655976295,-0.8034791133880614,-1.692349276074767
1684107932541346000,12.321345947265625,1.6987857388630507,-0.7776116816818713,-1.0442033477395771
1684107932551363800,12.33136376953125,2.308938621151447,-0.7409241652756929,-0.3637169922918081
1684107932561381000,12.341381103515625,2.341064236469567,-0.7677648259282112,0.6317874987304211
1684107932571399000,12.35139892578125,1.951762136544287,-0.9671277068436145,1.7788450717449187
1684107932581417000,12.3614169921875,1.3890297616004943,-1.3336398828119038,2.6216718606591223
1684107932591434000,12.37143408203125,0.809416394482553,-1.931478350189328,3.0862703168481587
1684107932601452000,12.3814521484375,0.301978036737442,-2.621875274276733,3.004973843386769
1684107932611470000,12.391469970703126,-0.042753100055456156,-3.069133888608217,2.571010763958096
1684107932621487000,12.401487060546875,-0.2613756849750876,-2.9236370379149914,2.0179969422131774
1684107932631505000,12.4115048828125,-0.5365925560370087,-2.347791206637025,1.635697999048233
1684107932641523200,12.421523193359375,-1.0138985181078315,-1.6476251682072878,1.2092711603432893
1684107932651541000,12.431541015625,-1.4717691273465752,-0.8396914134979248,0.7927426153182983
1684107932661558300,12.441558349609375,-1.8405270364150403,0.02174655238389969,0.40970834361612796
1684107932671571700,12.45157177734375,-1.9465587226822971,0.7248024670362472,-0.004590834921598434
1684107932681589500,12.461589599609376,-1.7483359517127275,1.1342167961418628,-0.5499386520832776
1684107932691606800,12.471606689453125,-1.287366791936755,1.3823556906640528,-0.9118898037463427
1684107932701624600,12.48162451171875,-0.6786088711380959,1.673574432978034,-0.8129249871253966
1684107932711642600,12.491642578125,0.06594459055066108,2.0115771382987497,-0.25679683275222775
1684107932721659600,12.50165966796875,0.8621016904875636,1.9177479310005903,0.15653028588294982
1684107932731677700,12.511677734375,1.417682147850096,1.3111983339011668,-0.14682137729525566
1684107932741695700,12.52169580078125,1.5548881400600074,0.5049515093654394,-0.9935749842643737
1684107932751713800,12.5317138671875,1.1587702226400374,-0.04323123896121978,-1.6741028407663106
1684107932761730600,12.54173046875,0.1758618860796094,0.20830723487138747,-1.2333669062018393
1684107932771748900,12.551748779296876,-0.9598027707830071,1.1483154641211033,0.22683833234012127
1684107932781766700,12.5617666015625,-1.597263931235671,1.77966340239048,1.0227852966576814
1684107932791783700,12.57178369140625,-1.737185904406011,1.8558295272260903,1.1257599334418773
1684107932801801700,12.5818017578125,-1.5174223327577112,1.4002993436336517,0.9354659096449613
1684107932811819800,12.59181982421875,-0.971641969397664,0.3932061216264963,0.274196880364418
1684107932821836800,12.6018369140625,-0.3851739140793681,-0.5232581504285335,-0.38247722234129905
1684107932831854600,12.6118544921875,-0.0029886604219675063,-0.7754127103328704,-0.06642623658776282
1684107932841872600,12.62187255859375,0.05759513374790549,-0.5703951646566391,0.7975222508102655
1684107932851890700,12.631890625,-0.29924013620615003,-0.10624562127888203,1.7888363044053315
1684107932861907700,12.64190771484375,-0.8552854346014559,0.3276969998836517,2.392151157367229
