time,seconds_elapsed,z,y,x
1684108714876808700,0.02180859375,0.12033528834581375,0.17489534616470337,0.12155164033174515
1684108714886826800,0.03182666015625,0.08572804182767868,0.09651611745357513,0.11177278310060501
1684108714896844500,0.041844482421875,0.02716795541346073,0.12553560733795166,0.006239663809537888
1684108714906861800,0.05186181640625,-0.058492887765169144,0.2648088037967682,-0.21944166719913483
1684108714916879600,0.061879638671875,-0.15279105305671692,0.6411213278770447,-0.5468173623085022
1684108714926897700,0.071897705078125,-0.2309255301952362,0.5694525241851807,-0.7935278415679932
1684108714936914700,0.081914794921875,-0.25081026554107666,0.2485516369342804,-0.9215149879455566
1684108714946932700,0.0919326171875,-0.21674470603466034,-0.10979906469583511,-0.9427313208580017
1684108714956950800,0.10195068359375,-0.11385703831911087,-0.4432103931903839,-0.8271027207374573
1684108714966967800,0.1119677734375,-0.016401059925556183,-0.5930249691009521,-0.6318634748458862
1684108714976985600,0.121985595703125,-0.002658568788319826,-0.6421817541122437,-0.4161585569381714
1684108714987004000,0.13200390625,-0.03852389380335808,-0.4802897572517395,-0.23145104944705963
1684108714997020700,0.142020751953125,-0.11079801619052887,-0.21219077706336975,-0.11734986305236816
1684108715007038700,0.152038818359375,-0.18881584703922272,-0.02285972610116005,-0.05762501060962677
1684108715017056800,0.162056884765625,-0.2842668890953064,0.013118690811097622,0.02015169896185398
1684108715027073500,0.172073486328125,-0.3526001274585724,-0.15423861145973206,0.13727699220180511
1684108715037091800,0.182091796875,-0.3897109627723694,-0.3692248463630676,0.24096091091632843
1684108715047109600,0.192109619140625,-0.45306116342544556,-0.3825204074382782,0.45216742157936096
1684108715057126700,0.202126708984375,-0.6899426579475403,-0.4568306803703308,0.6437064409255981
1684108715067144700,0.212144775390625,-0.9117395281791687,-0.1319095939397812,1.0304768085479736
1684108715077162800,0.222162841796875,-0.5805898904800415,0.6791335344314575,1.2982145547866821
1684108715087179800,0.2321796875,0.175506591796875,1.2436845302581787,1.3488737344741821
1684108715097197800,0.24219775390625,0.2722739279270172,1.1919454336166382,1.4144260883331299
1684108715107215600,0.252215576171875,-0.02690853737294674,0.9386060833930969,1.5020653009414673
1684108715117233000,0.26223291015625,-0.03415162116289139,0.8710734248161316,1.426291584968567
1684108715127250700,0.272250732421875,0.15622711181640625,0.9389363527297974,1.2697949409484863
1684108715137268700,0.282268798828125,0.22172580659389496,0.3154640197753906,1.176652193069458
1684108715147285800,0.29228564453125,0.1843760460615158,-0.6734183430671692,1.274387001991272
1684108715157303800,0.3023037109375,0.11425954103469849,-0.5856847167015076,1.4048672914505005
1684108715167321600,0.312321533203125,-0.15190689265727997,-0.01397781539708376,1.295007348060608
1684108715177338600,0.322338623046875,-0.6103636026382446,0.6183666586875916,0.9542015194892883
1684108715187356700,0.332356689453125,-1.0450907945632935,1.0474437475204468,0.5718866586685181
1684108715197374700,0.342374755859375,-1.2292755842208862,1.3633747100830078,0.15949101746082306
1684108715207391700,0.352391845703125,-1.1541084051132202,1.4602158069610596,-0.23549863696098328
1684108715217409500,0.362409423828125,-1.12259840965271,1.3187304735183716,-0.3469478189945221
1684108715227427800,0.372427734375,-1.0870928764343262,0.6795961856842041,-0.12072427570819855
1684108715237444600,0.382444580078125,-1.2117276191711426,0.12322752922773361,0.3989892601966858
1684108715247462700,0.392462646484375,-1.6836256980895996,-0.10124578326940536,0.9451044797897339
1684108715257480700,0.402480712890625,-2.038970708847046,0.4306279718875885,1.1790684461593628
1684108715267497700,0.412497802734375,-1.8565027713775635,1.3595755100250244,1.134505271911621
1684108715277515800,0.422515869140625,-1.0626875162124634,2.3759047985076904,1.0963547229766846
1684108715287533800,0.432533935546875,-0.1830233484506607,3.3417961597442627,0.9461796879768372
1684108715297550600,0.442550537109375,0.6151500940322876,3.9583752155303955,0.5145776867866516
1684108715307569000,0.45256884765625,1.071358323097229,3.9031825065612793,0.024541648104786873
1684108715317586700,0.462586669921875,1.1099692583084106,3.097223997116089,-0.17168648540973663
1684108715327603700,0.472603759765625,0.9111300110816956,2.24832820892334,-0.1374824494123459
1684108715337621800,0.482621826171875,0.9600195288658142,2.1513185501098633,-0.3469723165035248
1684108715347639800,0.492639892578125,1.183106541633606,2.457150459289551,-0.5761753916740417
1684108715357656800,0.50265673828125,1.4016382694244385,3.2147581577301025,-0.6688999533653259
1684108715367674600,0.512674560546875,1.6009644269943237,4.1706438064575195,-0.6116201281547546
1684108715377692700,0.522692626953125,1.761283278465271,5.029895782470703,-0.5079570412635803
1684108715387709700,0.532709716796875,1.8323113918304443,5.634675025939941,-0.41742953658103943
1684108715397727700,0.542727783203125,1.814159870147705,5.836963176727295,-0.3066904544830322
1684108715407745500,0.55274560546875,1.67954421043396,5.718033790588379,-0.137419655919075
1684108715417762800,0.5627626953125,1.3801767826080322,5.438366889953613,0.10326171666383743
1684108715427780600,0.572780517578125,0.9314896464347839,5.01660680770874,0.3270966708660126
1684108715437798700,0.582798583984375,0.3437129855155945,4.54829740524292,0.42362868785858154
1684108715447815700,0.592815673828125,-0.2602978050708771,4.118296146392822,0.32200324535369873
1684108715457833700,0.602833740234375,-0.7051503658294678,3.775780439376831,0.09019670635461807
1684108715467851500,0.6128515625,-0.9926311373710632,3.626091957092285,-0.20802967250347137
1684108715477868800,0.622868896484375,-1.1693586111068726,3.6407461166381836,-0.5524852871894836
1684108715487886600,0.632886474609375,-1.2476906776428223,3.4644672870635986,-0.8717378377914429
1684108715497905000,0.64290478515625,-1.235783576965332,2.941178798675537,-1.1393154859542847
1684108715507921700,0.652921630859375,-1.1359057426452637,2.2046236991882324,-1.3417149782180786
1684108715517939700,0.662939697265625,-0.9757245779037476,1.3349956274032593,-1.4169009923934937
1684108715527957800,0.672957763671875,-0.8514050245285034,0.6039876341819763,-1.3476223945617676
1684108715537975800,0.682975830078125,-0.8577399849891663,0.23351489007472992,-1.1516090631484985
1684108715547993000,0.6929931640625,-0.9957426190376282,0.22719280421733856,-0.8270609974861145
1684108715558011100,0.70301123046875,-1.185272216796875,0.5114376544952393,-0.43211421370506287
1684108715568029200,0.713029296875,-1.349416732788086,1.1114848852157593,-0.03481026366353035
1684108715578046200,0.723046142578125,-1.4707543849945068,1.8790770769119263,0.2642782926559448
1684108715588064300,0.733064208984375,-1.49530029296875,2.473642110824585,0.38158416748046875
1684108715598082000,0.74308203125,-1.4537391662597656,2.5644757747650146,0.3340964615345001
1684108715608099000,0.75309912109375,-1.4177212715148926,2.1643924713134766,0.1910269409418106
1684108715618117000,0.7631171875,-1.3978902101516724,1.5027344226837158,-0.00039281402132473886
1684108715628135000,0.773135009765625,-1.447900652885437,0.802245557308197,-0.24098198115825653
1684108715638152200,0.783152099609375,-1.544879674911499,0.24507683515548706,-0.5619586706161499
1684108715648170000,0.793169921875,-1.5427616834640503,0.017360571771860123,-0.9191309213638306
1684108715658188000,0.80318798828125,-1.352620244026184,0.06967614591121674,-1.1523677110671997
1684108715668205000,0.813205078125,-1.0061233043670654,0.2576926648616791,-1.0651265382766724
1684108715678223000,0.82322314453125,-0.5964992046356201,0.6565908193588257,-0.5924297571182251
1684108715688241000,0.833240966796875,-0.29624566435813904,1.111727237701416,0.1886511743068695
1684108715698258200,0.843258056640625,-0.1878894716501236,1.3195514678955078,1.0809448957443237
1684108715708276000,0.85327587890625,-0.22749760746955872,1.205177664756775,1.8072153329849243
1684108715718294000,0.8632939453125,-0.33737897872924805,1.0129741430282593,2.196953773498535
1684108715728311000,0.87331103515625,-0.4842110276222229,0.8569362759590149,2.27317476272583
1684108715738329000,0.8833291015625,-0.6997631192207336,0.8127511739730835,2.143670082092285
1684108715748347100,0.89334716796875,-0.9764575362205505,0.8931988477706909,1.945016622543335
1684108715758364000,0.903364013671875,-1.2104367017745972,1.117281436920166,1.824095368385315
1684108715768382000,0.9133818359375,-1.2906702756881714,1.4108341932296753,1.8398849964141846
1684108715778400300,0.923400146484375,-1.1928638219833374,1.70883047580719,1.9530365467071533
1684108715788417000,0.9334169921875,-1.0454448461532593,1.7388664484024048,2.0802409648895264
1684108715798435000,0.94343505859375,-0.9822021722793579,1.5021461248397827,2.1556129455566406
1684108715808453000,0.953453125,-0.91256183385849,1.2296514511108398,2.202439308166504
1684108715818470000,0.963469970703125,-0.5777614116668701,1.4911422729492188,2.1082215309143066
1684108715828488200,0.97348828125,1.243481159210205,4.079559326171875,0.43272045254707336
1684108715838506000,0.983506103515625,2.085235834121704,4.89824914932251,-0.10654408484697342
1684108715848523300,0.993523193359375,1.545868992805481,4.506223201751709,0.6044533252716064
1684108715858541000,1.003541015625,1.0035851001739502,4.323870658874512,1.3813679218292236
1684108715868559000,1.01355908203125,0.9010525941848755,4.6789116859436035,1.7928004264831543
1684108715878576000,1.023576171875,1.1032007932662964,5.079391002655029,2.0084762573242188
1684108715888594200,1.03359423828125,1.2566577196121216,4.768239498138428,2.001509189605713
1684108715898612000,1.043612060546875,1.2570750713348389,3.7875752449035645,1.4596633911132812
1684108715908629200,1.053629150390625,1.079009771347046,2.498933792114258,1.0224237442016602
1684108715918647000,1.06364697265625,0.7659968137741089,1.4168176651000977,0.939847469329834
1684108715928665000,1.0736650390625,0.7419708371162415,1.1902481317520142,0.6976481080055237
1684108715938682000,1.08368212890625,0.9219588041305542,1.2852684259414673,0.7756468653678894
1684108715948700200,1.0937001953125,0.8590424060821533,1.2996031045913696,1.224493145942688
1684108715958718000,1.103718017578125,0.64655601978302,1.5272037982940674,1.3014392852783203
1684108715968735000,1.11373486328125,0.5582722425460815,1.148629069328308,1.0271565914154053
1684108715978753000,1.1237529296875,0.4062090814113617,0.5162451863288879,0.7041350603103638
1684108715988771000,1.13377099609375,0.37098878622055054,0.1222505047917366,0.532486617565155
1684108715998788000,1.1437880859375,0.49276086688041687,0.29589617252349854,0.6262707114219666
1684108716008806000,1.153805908203125,0.7019903063774109,0.7807797193527222,0.8618224859237671
1684108716018824200,1.16382421875,0.8788411021232605,1.3749806880950928,0.9919998049736023
1684108716028841000,1.173841064453125,0.9508851766586304,1.579176664352417,1.0541017055511475
1684108716038859000,1.18385888671875,0.9049068093299866,1.396501064300537,0.9739704728126526
1684108716048877000,1.193876953125,0.8145896792411804,0.953223705291748,0.7316489219665527
1684108716058895000,1.20389501953125,0.7323943376541138,0.443126380443573,0.48485907912254333
1684108716068912000,1.213912109375,0.7521528601646423,0.09732980281114578,0.33391430974006653
1684108716078930200,1.22393017578125,0.8628982305526733,0.020679321140050888,0.28536364436149597
1684108716088947000,1.233947021484375,1.106356143951416,0.18514735996723175,0.3071642816066742
1684108716098965200,1.24396533203125,1.3741509914398193,0.6025296449661255,0.36268335580825806
1684108716108983000,1.253983154296875,1.5343159437179565,1.0768234729766846,0.4780072867870331
1684108716119001000,1.2640009765625,1.5060776472091675,1.1845037937164307,0.540342390537262
1684108716129018000,1.27401806640625,1.358437418937683,0.88038569688797,0.464885413646698
1684108716139036200,1.2840361328125,1.20004141330719,0.4717176854610443,0.2716042995452881
1684108716149054000,1.294053955078125,1.0917445421218872,0.2480529099702835,0.0921035036444664
1684108716159071000,1.304071044921875,1.0394750833511353,0.12910006940364838,-0.018045980483293533
1684108716169089000,1.314089111328125,1.1458995342254639,0.11583860218524933,-0.054815445095300674
1684108716179107000,1.324107177734375,1.2991222143173218,0.2589873969554901,0.028718074783682823
1684108716189124000,1.3341240234375,1.3720887899398804,0.5091061592102051,0.18098297715187073
1684108716199142000,1.344141845703125,1.2554595470428467,0.7421966791152954,0.3008001446723938
1684108716209160200,1.35416015625,1.041381597518921,0.6976438760757446,0.350578635931015
1684108716219177000,1.364177001953125,0.8836946487426758,0.48131662607192993,0.24130582809448242
1684108716229195000,1.374195068359375,0.8004764318466187,0.2724513113498688,0.06247641518712044
1684108716239213000,1.384213134765625,0.7235181927680969,0.07833844423294067,-0.093363918364048
1684108716249230000,1.39422998046875,0.6631839871406555,-0.09965924918651581,-0.18929976224899292
1684108716259248000,1.404248046875,0.6750530004501343,-0.18619512021541595,-0.2111540585756302
1684108716269266200,1.41426611328125,0.7510183453559875,-0.08106790482997894,-0.11660011857748032
1684108716279283000,1.424282958984375,0.862618625164032,0.11580955982208252,0.06760667264461517
1684108716289301200,1.43430126953125,1.026473879814148,0.4264494478702545,0.24001438915729523
1684108716299319000,1.444319091796875,1.2006239891052246,0.7780723571777344,0.40287068486213684
1684108716309336000,1.454336181640625,1.2778679132461548,0.9554671049118042,0.47668230533599854
1684108716319354000,1.46435400390625,1.3003367185592651,0.8284242153167725,0.453030526638031
1684108716329372200,1.4743720703125,1.2517987489700317,0.5706818699836731,0.3478742837905884
1684108716339389200,1.48438916015625,1.184137225151062,0.27789780497550964,0.2857987880706787
1684108716349407200,1.4944072265625,1.0968044996261597,0.13179758191108704,0.30582094192504883
1684108716359425000,1.504425048828125,1.0154881477355957,0.17706358432769775,0.38974034786224365
1684108716369442000,1.514442138671875,0.9747817516326904,0.30305084586143494,0.48824188113212585
1684108716379460000,1.524460205078125,0.9619227051734924,0.41364356875419617,0.5318604111671448
1684108716389478000,1.534477783203125,0.8932315111160278,0.49583539366722107,0.49393564462661743
1684108716399495200,1.5444951171875,0.7744779586791992,0.45940786600112915,0.35301658511161804
1684108716409513000,1.554512939453125,0.6087840795516968,0.2702259421348572,0.1363103687763214
1684108716419531000,1.564531005859375,0.413053959608078,-0.05106499791145325,-0.05939971283078194
1684108716429548000,1.574548095703125,0.21453607082366943,-0.44733697175979614,-0.15605995059013367
1684108716439566000,1.584566162109375,0.18214572966098785,-0.5130804777145386,-0.19207054376602173
1684108716449584000,1.594584228515625,0.3365504741668701,-0.3697108030319214,-0.155811607837677
1684108716459601200,1.60460107421875,0.49136045575141907,-0.1089147999882698,-0.12112515419721603
1684108716469619000,1.614618896484375,0.7215899229049683,0.08517398685216904,-0.08719434589147568
1684108716479637200,1.62463720703125,0.8724026679992676,0.2574787437915802,0.047229498624801636
1684108716489654000,1.634654052734375,0.9034903049468994,0.4360330402851105,0.2529645562171936
1684108716499672000,1.644672119140625,0.9075928926467896,0.6532884836196899,0.42655009031295776
1684108716509690000,1.654690185546875,0.8827003240585327,0.7510011792182922,0.4337118864059448
1684108716519707000,1.664706787109375,0.8753553032875061,0.6924770474433899,0.2672220766544342
1684108716529725200,1.67472509765625,0.8405799865722656,0.6181665658950806,0.08102451264858246
1684108716539743200,1.6847431640625,0.7860788106918335,0.7934683561325073,0.040691789239645004
1684108716549759700,1.694759765625,0.7568548917770386,1.163925051689148,0.19525046646595
1684108716559777800,1.70477783203125,0.8034017086029053,1.3981188535690308,0.4590914845466614
1684108716569795600,1.714795654296875,0.803500771522522,1.3620705604553223,0.5866361260414124
1684108716579812900,1.724812744140625,0.7124022841453552,1.1201168298721313,0.5290910005569458
1684108716589830700,1.73483056640625,0.5328447818756104,0.8374508023262024,0.3642027676105499
1684108716599848700,1.7448486328125,0.31620141863822937,0.5798161625862122,0.14895746111869812
1684108716609865700,1.75486572265625,0.10660450160503387,0.29761913418769836,-0.12213608622550964
1684108716619883800,1.7648837890625,-0.06158599629998207,0.041905686259269714,-0.3978390395641327
1684108716629901600,1.774901611328125,-0.14948922395706177,-0.10745929926633835,-0.5912734866142273
1684108716639918800,1.7849189453125,-0.1645485907793045,-0.0972820296883583,-0.5994946360588074
1684108716649936600,1.7949365234375,-0.2350725680589676,0.06442617624998093,-0.5773635506629944
1684108716659954700,1.80495458984375,-0.24690589308738708,0.07354795187711716,-0.5648967623710632
1684108716669971700,1.8149716796875,-0.08464987576007843,0.08822569996118546,-0.5908713340759277
1684108716679989800,1.82498974609375,0.026941215619444847,0.06751828640699387,-0.5420146584510803
1684108716690007800,1.8350078125,-0.12380541861057281,-0.07807460427284241,-0.4810367524623871
1684108716700024600,1.845024658203125,-0.352190226316452,-0.2855457663536072,-0.5253421068191528
1684108716710042600,1.855042724609375,-0.6020644903182983,-0.5788482427597046,-0.6237752437591553
1684108716720060700,1.865060791015625,-0.8857430815696716,-0.6958189010620117,-0.6602790951728821
1684108716730078700,1.87507861328125,-1.117916226387024,-0.5633220672607422,-0.5630630850791931
1684108716740095500,1.885095458984375,-1.2541701793670654,-0.3383302390575409,-0.3977699279785156
1684108716750113800,1.89511376953125,-1.3322352170944214,-0.1521555781364441,-0.2298203408718109
1684108716760131600,1.905131591796875,-1.3352017402648926,-0.001734734047204256,-0.04671034216880798
1684108716770148900,1.91514892578125,-1.2325332164764404,0.18276268243789673,0.16681471467018127
1684108716780166700,1.925166748046875,-1.0668952465057373,0.45789119601249695,0.4088260531425476
1684108716790184700,1.935184814453125,-0.866532027721405,0.6288477182388306,0.600077748298645
1684108716800201700,1.94520166015625,-0.7808789610862732,0.6650593280792236,0.6982177495956421
1684108716810219800,1.9552197265625,-1.5416028499603271,2.966069221496582,2.1761131286621094
1684108716820237600,1.965237548828125,-0.7664794325828552,2.476856231689453,1.9653754234313965
1684108716830254800,1.9752548828125,-0.30798855423927307,2.0889105796813965,1.6063132286071777
1684108716840272600,1.985272705078125,0.0603913739323616,1.2754778861999512,1.0184704065322876
1684108716850290700,1.995290771484375,0.18238359689712524,0.6758548021316528,0.40321335196495056
1684108716860307700,2.0053076171875,-0.3851761221885681,-0.2004709094762802,-0.15758003294467926
1684108716870325800,2.01532568359375,-0.276809960603714,-1.171923041343689,-0.4749886095523834
1684108716880343600,2.025343505859375,0.8209949135780334,-2.3039915561676025,-0.8815885186195374
1684108716890360600,2.035360595703125,1.3239773511886597,-2.8439278602600098,-1.0643922090530396
1684108716900378600,2.045378662109375,1.1826372146606445,-2.1476211547851562,-0.5084567070007324
1684108716910397000,2.05539697265625,0.5550462603569031,-1.4071567058563232,-0.12444567680358887
1684108716920413700,2.06541357421875,0.36178910732269287,-0.8951658010482788,-0.19686347246170044
1684108716930431500,2.075431396484375,0.5530805587768555,-0.5638001561164856,-0.09198261052370071
1684108716940449800,2.08544970703125,0.6700137257575989,-0.19504870474338531,0.2172090858221054
1684108716950466600,2.095466552734375,1.0953657627105713,0.3820657730102539,0.5200901031494141
1684108716960484900,2.10548486328125,1.0858230590820312,0.7914850115776062,0.7863394618034363
1684108716970502700,2.115502685546875,0.6799530982971191,0.9332522749900818,0.8098543882369995
1684108716980519700,2.125519775390625,0.3251635432243347,0.5643852949142456,0.4302234649658203
1684108716990537700,2.135537841796875,0.2731724977493286,0.0653347596526146,0.16360056400299072
1684108717000555800,2.1455556640625,0.4642164707183838,-0.0860944464802742,0.13394507765769958
1684108717010572500,2.155572509765625,0.6121188402175903,-0.11846809834241867,0.06253428757190704
1684108717020590800,2.1655908203125,0.6425393223762512,-0.26933225989341736,-0.014013243839144707
1684108717030608600,2.175608642578125,0.5917029976844788,-0.36625319719314575,-0.025546595454216003
1684108717040626000,2.1856259765625,0.5582566857337952,-0.46787598729133606,-0.10442013293504715
1684108717050643700,2.195643798828125,0.5699530243873596,-0.696241557598114,-0.3226081132888794
1684108717060661800,2.205661865234375,0.6358957290649414,-0.7534455060958862,-0.5336277484893799
1684108717070678800,2.2156787109375,0.659972608089447,-0.45999735593795776,-0.5370442867279053
1684108717080696800,2.22569677734375,0.638852596282959,0.02683734893798828,-0.37576526403427124
1684108717090714600,2.235714599609375,0.4940234422683716,0.5787604451179504,-0.12391705065965652
1684108717100731600,2.245731689453125,0.3824808895587921,0.670124351978302,0.04712871089577675
1684108717110749700,2.255749755859375,0.3539581596851349,0.3561781346797943,0.14295430481433868
1684108717120767500,2.265767578125,0.35967594385147095,0.40560829639434814,0.1746537834405899
1684108717130784800,2.27578466796875,0.3877722918987274,0.7379236221313477,0.2617037296295166
1684108717140802600,2.285802490234375,0.38710737228393555,0.8228465914726257,0.3500826060771942
1684108717150820600,2.295820556640625,0.4063343107700348,0.6775386333465576,0.4182201325893402
1684108717160837600,2.305837646484375,0.3443642556667328,0.37195807695388794,0.6019123196601868
1684108717170855700,2.315855712890625,0.2736501395702362,0.014326701872050762,0.9039995074272156
1684108717180873700,2.325873779296875,0.1696697324514389,-0.27958250045776367,1.0991142988204956
1684108717190890800,2.335890869140625,0.10660075396299362,-0.09585794061422348,1.1073850393295288
1684108717200908500,2.345908447265625,0.039022378623485565,0.2908579111099243,1.0849664211273193
1684108717210926800,2.3559267578125,-0.02094082161784172,0.37451526522636414,1.1144486665725708
1684108717220943600,2.365943603515625,0.04635171219706535,0.27606305480003357,1.155606746673584
1684108717230962000,2.3759619140625,-0.029799779877066612,0.26775187253952026,1.2085751295089722
1684108717240979700,2.385979736328125,-0.4560660719871521,0.07382100820541382,1.0954278707504272
1684108717250996500,2.39599658203125,-0.6648153066635132,-0.2820422947406769,0.948488712310791
1684108717261014800,2.406014892578125,-0.8095254898071289,-0.6086012721061707,0.7467292547225952
1684108717271032800,2.41603271484375,-0.9273514747619629,-0.9260452389717102,0.594238817691803
1684108717281049900,2.4260498046875,-0.8350741863250732,-1.1210116147994995,0.5304589867591858
1684108717291067600,2.436067626953125,-0.6199139952659607,-0.8503311276435852,0.7162107229232788
1684108717301085700,2.446085693359375,-0.15451401472091675,-0.41153502464294434,0.7501087784767151
1684108717311102700,2.456102783203125,0.3299860656261444,-0.3042280077934265,0.6959693431854248
1684108717321120800,2.466120849609375,0.6416339874267578,-0.30033454298973083,0.7158306241035461
1684108717331138600,2.476138671875,0.6761224269866943,-0.30422621965408325,0.6018550992012024
1684108717341156600,2.486156494140625,0.49932143092155457,-0.5817740559577942,0.4710526466369629
1684108717351173600,2.496173583984375,0.29489850997924805,-1.0062081813812256,0.25263747572898865
1684108717361191700,2.506191650390625,0.16879655420780182,-1.1016409397125244,0.05539877712726593
1684108717371209700,2.516209716796875,0.1165381446480751,-1.0205283164978027,-0.11636152863502502
1684108717381226800,2.526226806640625,0.1033761277794838,-0.915428638458252,-0.35590073466300964
1684108717391244500,2.53624462890625,0.20126886665821075,-0.44237345457077026,-0.2640416622161865
1684108717401262800,2.546262939453125,0.29028594493865967,-0.06685008108615875,-0.012939803302288055
1684108717411279600,2.556279541015625,0.16836751997470856,-0.03345005214214325,0.13576604425907135
1684108717421297700,2.566297607421875,-0.032281383872032166,-0.04450661316514015,0.25716546177864075
1684108717431315700,2.576315673828125,-0.2756700813770294,-0.16971193253993988,0.3250180184841156
1684108717441332700,2.586332763671875,-0.47517162561416626,-0.2793852686882019,0.38491976261138916
1684108717451350800,2.596350830078125,-0.6379490494728088,-0.37258708477020264,0.3654105067253113
1684108717461368800,2.606368896484375,-0.6724104881286621,-0.2892477214336395,0.278895765542984
1684108717471385600,2.616385498046875,-0.6522637009620667,-0.22696493566036224,0.20857524871826172
1684108717481403600,2.626403564453125,-0.4971972703933716,-0.27996253967285156,0.21250127255916595
1684108717491421700,2.636421630859375,-0.5108709931373596,-0.5898271799087524,0.13864381611347198
1684108717501438700,2.646438720703125,-0.5977770090103149,-0.8479951024055481,0.12318091839551926
1684108717511456800,2.656456787109375,-0.5761319398880005,-0.8286741375923157,0.07539582252502441
1684108717521474600,2.666474609375,-0.4137459695339203,-0.5940003991127014,0.02723376639187336
1684108717531491800,2.676491943359375,-0.32761189341545105,-0.4082009196281433,-0.08384588360786438
1684108717541509600,2.686509521484375,-0.29998713731765747,-0.3943951725959778,-0.19289228320121765
1684108717551529200,2.696529296875,-0.17118120193481445,-0.22365409135818481,-0.23390311002731323
1684108717561546000,2.7065458984375,-0.015282092615962029,-0.021014055237174034,-0.13411498069763184
1684108717571564300,2.716564208984375,0.07069806009531021,0.14050398766994476,0.006837884895503521
1684108717581582300,2.726582275390625,0.12296535819768906,0.3412841558456421,0.11986461281776428
1684108717591599000,2.73659912109375,0.36290550231933594,0.5451717376708984,0.2638081908226013
1684108717601617200,2.7466171875,0.6469735503196716,0.5957379937171936,0.3422587513923645
1684108717611635200,2.75663525390625,0.8906996846199036,0.4255060851573944,0.3825233280658722
1684108717621652200,2.76665234375,0.059223175048828125,-0.06597115844488144,0.08256679773330688
1684108717631670300,2.776670166015625,-0.29176387190818787,-0.20994910597801208,-0.6001707315444946
1684108717641688000,2.78668798828125,-0.36863598227500916,-0.09944166988134384,-1.038469672203064
1684108717651705300,2.796705322265625,-0.3787213861942291,0.049941424280405045,-1.1342030763626099
1684108717661723100,2.80672314453125,-0.19143091142177582,-0.004256296902894974,-1.0771061182022095
1684108717671741200,2.8167412109375,-0.172138974070549,-0.0319071002304554,-0.8125909566879272
1684108717681758200,2.82675830078125,-0.18492570519447327,0.26905557513237,-0.4594460725784302
1684108717691776300,2.8367763671875,-0.0729200690984726,0.5669056177139282,-0.22327269613742828
1684108717701794000,2.8467939453125,0.14706388115882874,0.6708681583404541,0.0640348419547081
1684108717711811300,2.856811279296875,0.3426850438117981,0.650105357170105,0.2835671901702881
1684108717721829000,2.8668291015625,0.4542103409767151,0.6919198036193848,0.4326384663581848
1684108717731847200,2.87684716796875,0.5647626519203186,0.7830630540847778,0.4807894825935364
1684108717741864200,2.8868642578125,0.5672847032546997,0.8430250287055969,0.4779599606990814
1684108717751882200,2.89688232421875,0.46612823009490967,0.806709885597229,0.4359627068042755
1684108717761900300,2.906900390625,0.3511289954185486,0.7253075242042542,0.29391583800315857
1684108717771917000,2.9169169921875,0.25225088000297546,0.4679660201072693,0.08488244563341141
1684108717781935000,2.92693505859375,0.1924254596233368,0.25508421659469604,0.005852476693689823
1684108717791953200,2.936953125,0.16452085971832275,0.19645842909812927,-0.006035075522959232
1684108717801970200,2.94697021484375,0.16765087842941284,0.277766615152359,0.0021014143712818623
1684108717811988200,2.95698828125,0.2049151510000229,0.36982810497283936,0.06343480944633484
1684108717822006300,2.96700634765625,0.24968576431274414,0.15871743857860565,0.30727067589759827
1684108717832023000,2.97702294921875,0.1934954673051834,0.6460255980491638,0.03724638372659683
1684108717842041300,2.987041259765625,0.11601611226797104,0.38400354981422424,0.14000524580478668
1684108717852059100,2.99705908203125,0.11760415881872177,0.3439352214336395,0.20901840925216675
1684108717862076200,3.007076171875,0.19797861576080322,0.4450257420539856,0.24389441311359406
1684108717872094200,3.01709423828125,0.27673065662384033,0.5786988139152527,0.37444841861724854
1684108717882112300,3.0271123046875,0.32136884331703186,0.5972369909286499,0.403461217880249
1684108717892129300,3.03712939453125,0.30044785141944885,0.6205026507377625,0.35903650522232056
1684108717902147300,3.047147216796875,0.2062365561723709,0.656853199005127,0.3451104760169983
1684108717912165000,3.0571650390625,0.10788628458976746,0.6965638399124146,0.32979515194892883
1684108717922182400,3.067182373046875,0.0729403868317604,0.54490727186203,0.25010326504707336
1684108717932200200,3.0772001953125,0.1103692501783371,0.2249806970357895,0.13504883646965027
1684108717942218200,3.08721826171875,0.02844890020787716,0.006565099582076073,-0.008744151331484318
1684108717952236300,3.097236328125,-0.0860113725066185,-0.12336546927690506,-0.1752479076385498
1684108717962253000,3.107253173828125,-0.13525131344795227,-0.1756213903427124,-0.2892504930496216
1684108717972271000,3.11727099609375,-0.10946287214756012,-0.14096221327781677,-0.32289552688598633
1684108717982289400,3.127289306640625,0.0400623194873333,0.019336815923452377,-0.278236448764801
1684108717992306200,3.13730615234375,0.12012573331594467,0.15343816578388214,-0.08732693642377853
1684108718002324200,3.14732421875,0.10388476401567459,0.31056448817253113,0.1106809750199318
1684108718012342300,3.15734228515625,0.05846695229411125,0.4523024559020996,0.14579102396965027
1684108718022359000,3.167359130859375,0.07614918053150177,0.535435140132904,-0.010074824094772339
1684108718032377300,3.17737744140625,0.15377873182296753,0.42978784441947937,-0.20724008977413177
1684108718042395100,3.18739501953125,0.40105000138282776,-0.549929141998291,-0.8708001375198364
1684108718052412200,3.197412109375,0.33295005559921265,-1.2140586376190186,-1.1769694089889526
1684108718062430200,3.20743017578125,0.38031449913978577,-0.9421181678771973,-1.0357766151428223
1684108718072448300,3.2174482421875,0.005498809739947319,-0.3340769112110138,-0.8089144229888916
1684108718082465300,3.22746533203125,-0.36678534746170044,0.05022505298256874,-0.5092308521270752
1684108718092483300,3.2374833984375,-0.45408937335014343,0.19844087958335876,-0.3340901732444763
1684108718102501000,3.247501220703125,-0.45485180616378784,-0.09713208675384521,-0.43086862564086914
1684108718112518400,3.257518310546875,-0.42545610666275024,-0.4963175654411316,-0.6257001757621765
1684108718122536200,3.2675361328125,-0.32783427834510803,-0.4870104491710663,-0.812911331653595
1684108718132554200,3.27755419921875,-0.22713245451450348,-0.2527627944946289,-0.8412500023841858
1684108718142571300,3.2875712890625,-0.19149665534496307,-0.04516476392745972,-0.7701560854911804
1684108718152589300,3.29758935546875,-0.14727352559566498,0.14658603072166443,-0.7106775641441345
1684108718162607000,3.307607177734375,-0.08528745919466019,0.23578016459941864,-0.6809241771697998
1684108718172624100,3.3176240234375,-0.07252585887908936,0.3514236807823181,-0.6361596584320068
1684108718182642200,3.32764208984375,-0.2240205556154251,0.6213701367378235,-0.6292328238487244
1684108718192660000,3.337659912109375,-0.44717082381248474,0.7684136033058167,-0.6767654418945312
1684108718202677200,3.34767724609375,-0.6184496283531189,0.7056454420089722,-0.7153310179710388
1684108718212695000,3.357695068359375,-0.7493541240692139,0.5251342058181763,-0.7510658502578735
1684108718222713300,3.36771337890625,-0.8250592350959778,0.2571990191936493,-0.8039527535438538
1684108718232730000,3.377730224609375,-0.8851076364517212,-0.056500330567359924,-0.807295560836792
1684108718242748200,3.387748046875,-0.9367494583129883,-0.302898645401001,-0.7392323613166809
1684108718252766200,3.39776611328125,-0.9556163549423218,-0.31300079822540283,-0.6707974076271057
1684108718262783200,3.407783203125,-0.9593228101730347,-0.20346669852733612,-0.633384644985199
1684108718272801300,3.41780126953125,-0.886009156703949,-0.02155202254652977,-0.633758544921875
1684108718282819300,3.4278193359375,-0.8575088977813721,0.18766795098781586,-0.6412671804428101
1684108718292836000,3.437836181640625,-0.8752666115760803,0.3895033299922943,-0.6649677157402039
1684108718302854400,3.4478544921875,-0.9920693039894104,0.46651265025138855,-0.7022838592529297
1684108718312872200,3.4578720703125,-1.2173758745193481,0.23807492852210999,-0.8386353254318237
1684108718322889200,3.46788916015625,-1.5629644393920898,-0.033171750605106354,-0.8872914910316467
1684108718332907300,3.4779072265625,-1.7865750789642334,-0.18088398873806,-0.941879391670227
1684108718342925300,3.48792529296875,-2.190807580947876,-0.48539993166923523,-0.8695945143699646
1684108718352943000,3.497943115234375,-2.6749157905578613,-1.5731227397918701,-1.3510589599609375
1684108718362960100,3.507960205078125,-3.2985336780548096,-3.6554787158966064,-2.309685468673706
1684108718372978200,3.517978271484375,-2.7031502723693848,-3.2671072483062744,-2.0611214637756348
1684108718382996200,3.527996337890625,-1.7305090427398682,-1.2693183422088623,-0.8019108176231384
1684108718393013200,3.53801318359375,-1.155658483505249,0.43871891498565674,-0.06608310341835022
1684108718403031000,3.548031005859375,-0.9055020213127136,0.5644007325172424,-0.29301536083221436
1684108718413049300,3.55804931640625,-0.6784398555755615,0.1821460723876953,-0.7257739901542664
1684108718423066000,3.568066162109375,-0.436360627412796,0.2660503685474396,-0.8608802556991577
1684108718433084200,3.578084228515625,-0.4243742823600769,0.7008572220802307,-0.6527174711227417
1684108718443102200,3.588102294921875,-0.7269522547721863,1.2297513484954834,-0.16974256932735443
1684108718453119200,3.598119140625,-1.0962492227554321,1.4079501628875732,0.23533834517002106
1684108718463137000,3.608136962890625,-1.2814264297485352,1.1696252822875977,0.24778033792972565
1684108718473155300,3.6181552734375,-1.2320146560668945,0.445418119430542,0.061610203236341476
1684108718483172000,3.628172119140625,-1.1074436902999878,0.16424155235290527,0.029544293880462646
1684108718493190400,3.6381904296875,-0.94461590051651,0.44141218066215515,0.249278262257576
1684108718503208200,3.648208251953125,-0.9816828370094299,0.7750524878501892,0.5687398910522461
1684108718513225200,3.65822509765625,-0.8127721548080444,0.8609327673912048,0.594080924987793
1684108718523243300,3.6682431640625,-0.3902801275253296,1.0156102180480957,0.5830917954444885
1684108718533261300,3.67826123046875,0.09275896102190018,0.9667007923126221,0.6378405094146729
1684108718543278300,3.6882783203125,0.5418505668640137,0.5162950158119202,0.6300348043441772
1684108718553294800,3.698294921875,1.132108449935913,0.5696120262145996,0.7489156723022461
1684108718563313000,3.70831298828125,1.6042752265930176,1.0763449668884277,0.9434926509857178
1684108718573330000,3.718329833984375,1.8654404878616333,1.5148848295211792,1.1171265840530396
1684108718583347700,3.72834765625,1.8563381433486938,1.5586086511611938,1.1794838905334473
1684108718593366000,3.738365966796875,1.783097743988037,1.2912033796310425,1.204248070716858
1684108718603382800,3.7483828125,1.65019953250885,1.1502972841262817,1.329384207725525
1684108718613400800,3.75840087890625,1.3862032890319824,1.2117112874984741,1.4916986227035522
1684108718623419000,3.7684189453125,1.0409040451049805,1.2581894397735596,1.3724982738494873
1684108718633436000,3.778435791015625,0.5907695889472961,0.7814542055130005,0.9829680919647217
1684108718643454000,3.788453857421875,0.04251711815595627,0.3182041347026825,0.46319931745529175
1684108718653472000,3.798471923828125,-0.3235926926136017,0.5002002716064453,0.43810489773750305
1684108718663489800,3.80848974609375,-0.450669527053833,0.8502383232116699,0.6889635324478149
1684108718673507000,3.818507080078125,-0.47976216673851013,0.758558452129364,0.6271163821220398
1684108718683524900,3.82852490234375,-0.36154481768608093,0.20299310982227325,0.3375692069530487
1684108718693543000,3.83854296875,-0.1684778779745102,-0.07276922464370728,0.17926478385925293
1684108718703560000,3.848559814453125,-0.1440383642911911,-0.014721455052495003,0.21891658008098602
1684108718713578000,3.858577880859375,-0.25175657868385315,0.008873087354004383,0.31202733516693115
1684108718723595800,3.868595703125,-0.31149888038635254,0.13237397372722626,0.4400300085544586
1684108718733613000,3.878613037109375,-0.1752595454454422,0.8352293372154236,0.6482380628585815
1684108718743630800,3.888630859375,0.012511039152741432,1.4637386798858643,0.5150062441825867
1684108718753649000,3.89864892578125,-0.05242268741130829,1.5086311101913452,0.40944308042526245
1684108718763666000,3.908666015625,-0.3521299362182617,1.454518437385559,0.4257364571094513
1684108718773684000,3.91868408203125,-0.47066402435302734,1.408182144165039,0.3883848190307617
1684108718783701000,3.928700927734375,-0.7955231666564941,1.3751275539398193,0.5067479014396667
1684108718793718800,3.93871875,-1.0637972354888916,1.395819067955017,0.7555874586105347
1684108718803736800,3.94873681640625,-1.3190186023712158,1.178482174873352,1.0991085767745972
1684108718813753900,3.95875390625,-1.7196388244628906,0.68165522813797,1.6464223861694336
1684108718823772000,3.96877197265625,-1.9461086988449097,0.07437913119792938,2.254673719406128
1684108718833790000,3.9787900390625,-1.4428343772888184,1.235539197921753,1.6719948053359985
1684108718843807000,3.988806884765625,-1.623298168182373,0.6033771634101868,0.6307185888290405
1684108718853824800,3.99882470703125,-2.0756096839904785,-0.9493458271026611,-0.21266189217567444
1684108718863843000,4.008843017578125,-2.005110025405884,-1.0787684917449951,-0.6291003823280334
1684108718873859800,4.01885986328125,-1.8471953868865967,-0.5697245001792908,-0.570655882358551
1684108718883878000,4.0288779296875,-1.6629589796066284,-0.04917903244495392,-0.5972158312797546
1684108718893896000,4.03889599609375,-1.5188864469528198,0.21650297939777374,-0.7056408524513245
1684108718903913000,4.048912841796875,-1.3035554885864258,0.10338734090328217,-0.736986517906189
1684108718913931000,4.058930908203125,-1.0211890935897827,-0.12776154279708862,-0.7047779560089111
1684108718923949000,4.068948974609375,-0.8473594784736633,-0.3508945107460022,-0.5981729626655579
1684108718933965800,4.0789658203125,-0.8649824261665344,-0.5496448874473572,-0.47976696491241455
1684108718943983900,4.08898388671875,-0.9481675624847412,-0.5765420198440552,-0.2810066044330597
1684108718954002000,4.099001953125,-0.9359424710273743,-0.5675274133682251,-0.09353036433458328
1684108718964019000,4.10901904296875,-0.7394281029701233,-0.5985953211784363,0.11300843209028244
1684108718974037000,4.119037109375,-0.4354293644428253,-0.7042438983917236,0.3453027307987213
1684108718984054800,4.1290546875,-0.13662321865558624,-0.7556759119033813,0.5686346292495728
1684108718994072800,4.13907275390625,0.17518341541290283,-0.7374959588050842,0.7387887239456177
1684108719004089900,4.14908984375,0.48241713643074036,-0.5458311438560486,0.7949318885803223
1684108719014108000,4.15910791015625,0.7282318472862244,-0.6423462629318237,0.8910079002380371
1684108719024125700,4.169125732421875,0.8946533203125,-0.6899933815002441,0.747266411781311
1684108719034143000,4.17914306640625,1.0430185794830322,-0.5909781455993652,0.4118335545063019
1684108719044160800,4.189160888671875,1.154140830039978,-0.5801079273223877,0.13747575879096985
1684108719054179000,4.199178955078125,1.1982731819152832,-0.3875429630279541,0.07836126536130905
1684108719064195800,4.20919580078125,0.9968506097793579,0.007783849723637104,-0.36322277784347534
1684108719074214000,4.2192138671875,-0.06238822638988495,4.157166004180908,-2.1253879070281982
1684108719084232000,4.22923193359375,-0.9096694588661194,6.630446434020996,-2.7682812213897705
1684108719094249000,4.2392490234375,-1.5575799942016602,4.993531703948975,-2.0135536193847656
1684108719104267000,4.24926708984375,-1.6053435802459717,2.284855842590332,-1.4147580862045288
1684108719114285000,4.25928515625,-1.0484468936920166,-1.1029086112976074,-0.8470958471298218
1684108719124301800,4.2693017578125,-0.4575774669647217,-3.1092894077301025,-0.3887021839618683
1684108719134320000,4.279320068359375,-0.2628815770149231,-2.383890151977539,0.011414510197937489
1684108719144338000,4.289337890625,-0.4762990474700928,-0.1250859647989273,0.749428927898407
1684108719154356000,4.29935595703125,-0.20582519471645355,1.962537169456482,1.1340388059616089
1684108719164373000,4.309373046875,0.05650644749403,2.2240419387817383,0.9684321284294128
1684108719174391000,4.31939111328125,0.08616793900728226,2.5813233852386475,0.6621022820472717
1684108719184408800,4.329408935546875,-0.21136334538459778,2.006455421447754,0.552853524684906
1684108719194425900,4.33942578125,-0.6263524889945984,1.19625723361969,0.3952904939651489
1684108719204444000,4.34944384765625,-0.8738948106765747,0.3701942563056946,0.1535935252904892
1684108719214461700,4.359461669921875,-0.709651529788971,-0.13472189009189606,-0.08264511078596115
1684108719224479000,4.36947900390625,-0.4564056992530823,-0.4122792184352875,-0.25627678632736206
1684108719234496800,4.379496826171875,-0.239983931183815,-0.36425790190696716,-0.2233729064464569
1684108719244514800,4.389514892578125,0.010781836695969105,-0.005925299599766731,-0.06776499003171921
1684108719254532900,4.399532958984375,0.20930825173854828,0.09196504205465317,0.012185503728687763
1684108719264550000,4.4095498046875,0.28839239478111267,0.04332968592643738,-0.04298848658800125
1684108719274568000,4.41956787109375,0.2920055091381073,-0.22164791822433472,-0.14008226990699768
1684108719284586000,4.4295859375,0.2875867784023285,-0.4424138367176056,-0.22787870466709137
1684108719294602800,4.439602783203125,0.270512193441391,-0.5481448173522949,-0.30249518156051636
1684108719304621000,4.44962109375,0.27302318811416626,-0.6038073897361755,-0.3649483919143677
1684108719314638800,4.459638916015625,0.2984105944633484,-0.6478126645088196,-0.39403170347213745
1684108719324656000,4.46965625,0.3081294298171997,-0.5699447393417358,-0.4384288191795349
1684108719334674000,4.479673828125,0.2877599596977234,-0.3713485300540924,-0.5010632276535034
1684108719344692000,4.48969189453125,0.4024292528629303,-0.12830492854118347,-0.7932795286178589
1684108719354709000,4.499708984375,0.36066317558288574,0.03448159620165825,-0.7639898061752319
1684108719364727000,4.50972705078125,0.28606122732162476,0.4324243366718292,-0.3392568826675415
1684108719374744800,4.519744873046875,0.20590752363204956,1.171868085861206,-0.06534438580274582
1684108719384761900,4.529761962890625,0.04818553850054741,1.945237636566162,0.3187410235404968
1684108719394780000,4.53977978515625,-0.2629297375679016,2.375030279159546,0.6903685927391052
1684108719404798000,4.5497978515625,-0.5414941906929016,2.1424403190612793,0.889803946018219
1684108719414815000,4.55981494140625,-0.4989869296550751,1.1137970685958862,0.8339846134185791
1684108719424832800,4.569832763671875,-0.5266400575637817,-0.25660625100135803,-0.2230808138847351
1684108719434850800,4.579850830078125,-0.7737805843353271,-0.3858755826950073,-0.8807836174964905
1684108719444867800,4.589867919921875,-0.344787061214447,-1.5468556880950928,-0.8603026270866394
1684108719454886000,4.599885986328125,0.41359201073646545,-2.477313756942749,-0.7273509502410889
1684108719464904000,4.609904052734375,1.148189902305603,-2.7087318897247314,-0.49486836791038513
1684108719474921000,4.6199208984375,1.403110384941101,-2.2797114849090576,-0.43825381994247437
1684108719484938800,4.629938720703125,1.1537580490112305,-1.5136181116104126,-0.6488479971885681
1684108719494957000,4.63995703125,0.5436810851097107,-0.5407516360282898,-0.7736333608627319
1684108719504974800,4.649974853515625,0.04555242508649826,-0.04268517345190048,-0.6613385081291199
1684108719514991900,4.659991943359375,-0.20852726697921753,-0.4983728229999542,-0.4439513087272644
1684108719525010000,4.670010009765625,-0.32206642627716064,-0.9730749130249023,-0.3241746723651886
1684108719535028000,4.680028076171875,-0.14475129544734955,-0.8907901644706726,-0.30141475796699524
1684108719545045000,4.690044921875,0.07407011091709137,-0.5221383571624756,-0.24161487817764282
1684108719555063600,4.7000634765625,0.16113977134227753,-0.26591745018959045,-0.2063961625099182
1684108719565081300,4.710081298828125,0.01156635768711567,-0.15279178321361542,-0.25038063526153564
1684108719575098600,4.7200986328125,-0.2161962389945984,-0.09808354079723358,-0.2178402543067932
1684108719585116400,4.730116455078125,-0.20529799163341522,-0.20431801676750183,-0.06855541467666626
1684108719595134500,4.740134521484375,-0.035577673465013504,-0.41404569149017334,0.01785111241042614
1684108719605151500,4.7501513671875,0.07929318398237228,-0.4223945736885071,-0.03334781527519226
1684108719615169500,4.76016943359375,0.08443335443735123,-0.20780692994594574,-0.053649358451366425
1684108719625187300,4.770187255859375,0.07751337438821793,-0.12209922075271606,0.011174261569976807
1684108719635204400,4.780204345703125,0.24631011486053467,-0.31983599066734314,0.1655137687921524
1684108719645222400,4.790222412109375,0.5710893869400024,-1.0107625722885132,0.5449388027191162
1684108719655240200,4.800240234375,0.10741812735795975,-1.0368281602859497,0.3024561107158661
1684108719665257500,4.810257568359375,-0.4393906593322754,-0.4422158896923065,-0.19151894748210907
1684108719675275300,4.820275146484375,-0.44942542910575867,0.0980880931019783,-0.24267001450061798
1684108719685293300,4.830293212890625,-0.18661871552467346,0.4322959780693054,-0.0007632597116753459
1684108719695310300,4.840310302734375,0.041334304958581924,0.6459084153175354,0.2508269250392914
1684108719705328400,4.850328369140625,0.33331212401390076,0.7078951597213745,0.2912326753139496
1684108719715346400,4.860346435546875,0.5643395185470581,0.8840968012809753,0.08681827783584595
1684108719725363500,4.870363525390625,0.5044652223587036,1.0956364870071411,-0.13222649693489075
1684108719735381200,4.88038134765625,0.19426506757736206,1.2162574529647827,-0.333379328250885
1684108719745399600,4.890399658203125,-0.11792850494384766,0.9184499979019165,-0.46444636583328247
1684108719755416300,4.900416259765625,-0.2396956831216812,0.26088598370552063,-0.5099704265594482
1684108719765434600,4.9104345703125,-0.32308292388916016,-0.3763389587402344,-0.4067840576171875
1684108719775452400,4.920452392578125,-0.5809937715530396,-0.7408967018127441,-0.13521964848041534
1684108719785470500,4.930470458984375,-0.7978053092956543,-0.8708840012550354,0.04963773488998413
1684108719795487500,4.940487548828125,-0.9820968508720398,-0.7552652359008789,0.10442588478326797
1684108719805505500,4.950505615234375,-1.0920441150665283,-0.306963175535202,0.23682792484760284
1684108719815523300,4.9605234375,-1.050302505493164,0.22600194811820984,0.3817712664604187
1684108719825540400,4.970540283203125,-1.0085242986679077,0.5205663442611694,0.6408249735832214
1684108719835558400,4.980558349609375,-1.0932421684265137,0.4983023703098297,1.0485507249832153
1684108719845576400,4.990576416015625,-1.1447452306747437,0.47291070222854614,1.1964184045791626
1684108719855593500,5.000593505859375,-1.035471796989441,0.7367063760757446,0.9603181481361389
1684108719865611300,5.010611328125,-0.8107544779777527,1.1721527576446533,0.5669203996658325
1684108719875629300,5.02062939453125,-0.6196691989898682,1.4305126667022705,0.36717110872268677
1684108719885646300,5.030646240234375,-0.4154186546802521,1.596404790878296,0.3112572431564331
1684108719895664400,5.040664306640625,-0.2475857138633728,1.6987130641937256,0.37074562907218933
1684108719905682400,5.050682373046875,0.1855892837047577,0.5262972116470337,0.4334895610809326
1684108719915699500,5.060699462890625,-0.5879189372062683,0.5902988314628601,-0.28562143445014954
1684108719925717200,5.07071728515625,-0.5681638121604919,1.1430670022964478,0.22601842880249023
1684108719935735600,5.080735595703125,0.0650104507803917,0.7768152952194214,0.4763135015964508
1684108719945752300,5.09075244140625,0.41990676522254944,0.3497624099254608,0.5019264221191406
1684108719955770400,5.100770263671875,0.4173477292060852,0.3070961534976959,0.5678254961967468
1684108719965788400,5.110788330078125,0.1047612726688385,0.4679437279701233,0.6277384757995605
1684108719975805400,5.120805419921875,-0.33078858256340027,0.6528078317642212,0.6435046792030334
1684108719985823500,5.130823486328125,-0.5855574011802673,0.8591267466545105,0.711167573928833
1684108719995841500,5.140841552734375,-0.6108523607254028,0.9364356994628906,0.8310111165046692
1684108720005858300,5.1508583984375,-0.5653508901596069,0.9063113927841187,1.0923171043395996
1684108720015876400,5.16087646484375,-0.5771268606185913,0.9770167469978333,1.4680957794189453
1684108720025894400,5.170894287109375,-0.7192825675010681,1.275148868560791,1.8253657817840576
1684108720035912400,5.180912353515625,-1.0237444639205933,1.6720978021621704,2.0880560874938965
1684108720045929500,5.190929443359375,-1.3355306386947632,2.5531718730926514,2.389925956726074
1684108720055947300,5.200947265625,-1.425420880317688,3.3125171661376953,2.705759048461914
1684108720065965300,5.21096533203125,-1.0801115036010742,3.0273241996765137,1.9962072372436523
1684108720075982300,5.220982421875,-0.5644295811653137,1.0361696481704712,0.9930621385574341
1684108720086000400,5.23100048828125,-0.18134194612503052,0.10004205256700516,0.5136376023292542
1684108720096018400,5.241018310546875,-0.16745835542678833,-0.48474228382110596,0.16079989075660706
1684108720106035500,5.251035400390625,-0.20865163207054138,-0.5842663049697876,-0.09585001319646835
1684108720116053200,5.26105322265625,-0.2805945575237274,-0.4932807683944702,-0.283048152923584
1684108720126071600,5.271071533203125,-0.25629284977912903,-0.5272029638290405,-0.4448813796043396
1684108720136088300,5.28108837890625,-0.17176277935504913,-0.9564030766487122,-0.689994215965271
1684108720146106400,5.2911064453125,-0.10225248336791992,-1.512302041053772,-1.0003310441970825
1684108720156124400,5.30112451171875,-0.011059453710913658,-1.6630679368972778,-1.1962573528289795
1684108720166141400,5.311141357421875,0.026950396597385406,-1.4337774515151978,-1.2609776258468628
1684108720176159500,5.321159423828125,0.04396293684840202,-0.6978446245193481,-1.1450915336608887
1684108720186177500,5.331177490234375,0.10408244282007217,0.09508431702852249,-0.8499426245689392
1684108720196194300,5.3411943359375,-0.13646705448627472,0.5059261918067932,-0.5502755045890808
1684108720206212600,5.351212646484375,-0.4424690008163452,0.590877115726471,-0.3503167927265167
1684108720216230400,5.36123046875,-0.6642554402351379,0.05203147605061531,-0.35901519656181335
1684108720226247400,5.371247314453125,-1.0838687419891357,-2.83440899848938,-1.2835654020309448
1684108720236265500,5.381265380859375,-1.7480899095535278,-3.7138566970825195,-2.282148599624634
1684108720246283500,5.391283447265625,-2.2273452281951904,-4.125555038452148,-2.1226892471313477
1684108720256300500,5.401300537109375,-1.6814016103744507,-3.112532615661621,-1.4988822937011719
1684108720266318300,5.411318359375,-0.7882841229438782,-1.1687978506088257,-0.8868826031684875
1684108720276336400,5.42133642578125,-0.27648264169692993,0.4945496916770935,-0.33401647210121155
1684108720286354200,5.431354248046875,-0.16958971321582794,1.0009487867355347,-0.07108134031295776
1684108720296371500,5.441371337890625,-0.19429346919059753,0.626660943031311,-0.1714891642332077
1684108720306389200,5.45138916015625,-0.17852869629859924,0.25381171703338623,-0.23577317595481873
1684108720316407600,5.461407470703125,-0.03435421735048294,0.01725298911333084,-0.22141286730766296
1684108720326424300,5.47142431640625,0.029608752578496933,-0.12008026987314224,-0.2940080463886261
1684108720336442400,5.4814423828125,-0.12057994306087494,-0.37234795093536377,-0.3944084048271179
1684108720346460400,5.49146044921875,-0.5341200828552246,-0.4075866937637329,-0.44085362553596497
1684108720356477400,5.5014775390625,-0.8448310494422913,-0.3138572871685028,-0.290961891412735
1684108720366495500,5.51149560546875,-1.016349196434021,0.02893584407866001,0.009798502549529076
1684108720376513500,5.521513427734375,-1.1162598133087158,0.9025786519050598,0.3320905268192291
1684108720386530300,5.5315302734375,-0.7029550075531006,1.1541295051574707,0.5467157959938049
1684108720396548600,5.541548583984375,-0.17763321101665497,0.9153156280517578,0.4503842294216156
1684108720406566400,5.55156640625,0.12732937932014465,0.5037232041358948,0.2304704338312149
1684108720416583400,5.56158349609375,0.24333295226097107,0.3008553087711334,0.01180148497223854
1684108720426601500,5.5716015625,0.33689019083976746,0.8397992253303528,0.137752965092659
1684108720436619500,5.58161962890625,0.5402404069900513,2.0510377883911133,0.468580961227417
1684108720446636500,5.591636474609375,0.850232720375061,3.1792750358581543,0.689726710319519
1684108720456654300,5.601654296875,1.24946129322052,3.6950268745422363,0.6397250890731812
1684108720466672400,5.61167236328125,1.5207536220550537,2.78364634513855,0.2751680910587311
1684108720476689400,5.621689453125,1.2025364637374878,1.8173009157180786,0.18776261806488037
1684108720486707500,5.63170751953125,0.794326663017273,0.6936509609222412,0.3137061297893524
1684108720496725200,5.641725341796875,0.4298831820487976,0.028418919071555138,0.2629859745502472
1684108720506743600,5.65174365234375,0.052946437150239944,-0.18471936881542206,0.015283597633242607
1684108720516760300,5.66176025390625,-0.1273501068353653,-0.0979842022061348,-0.017596853896975517
1684108720526778400,5.6717783203125,-0.1665974110364914,-0.06330753117799759,-0.032799795269966125
1684108720536796400,5.68179638671875,-0.3184061348438263,-0.34262919425964355,-0.04437948763370514
1684108720546813400,5.6918134765625,-0.513641893863678,-0.7582153081893921,-0.023466944694519043
1684108720556831000,5.7018310546875,-0.5826238989830017,-1.053594708442688,-0.0170588456094265
1684108720566849000,5.71184912109375,-0.5378527641296387,-0.9751765727996826,0.005188747774809599
1684108720576865800,5.72186572265625,-0.45716992020606995,-0.5558072328567505,0.11227312684059143
1684108720586884000,5.731884033203125,-0.421938419342041,0.02064124122262001,0.2088005095720291
1684108720596902000,5.74190185546875,-0.3640010952949524,0.4645691514015198,0.3344026505947113
1684108720606919000,5.7519189453125,-0.3125545084476471,0.38387900590896606,0.3191035985946655
1684108720616937000,5.76193701171875,-0.33742523193359375,-0.2789996266365051,0.15708592534065247
1684108720626954800,5.771954833984375,-0.3755972981452942,-0.11536639928817749,0.2421688437461853
1684108720636972000,5.781971923828125,-0.4437236189842224,0.12481077760457993,0.2516976594924927
1684108720646989800,5.79198974609375,-0.8314875364303589,0.3740081787109375,0.3740609884262085
1684108720657007900,5.8020078125,-1.3489820957183838,0.006418456323444843,0.6143825054168701
1684108720667025000,5.81202490234375,-1.880670428276062,-0.38838958740234375,0.8998054265975952
1684108720677043000,5.82204296875,-2.4707682132720947,-0.5253676772117615,1.3328622579574585
1684108720687060700,5.832060791015625,-2.7479989528656006,-0.326567679643631,1.9303371906280518
1684108720697078000,5.842078125,-2.2954819202423096,-0.15433785319328308,2.0938684940338135
1684108720707095800,5.852095703125,-1.748334288597107,-0.4268461763858795,1.6090824604034424
1684108720717113900,5.86211376953125,-1.3305174112319946,-0.6835147142410278,1.043359398841858
1684108720727132000,5.8721318359375,-1.2630897760391235,-0.9651620984077454,0.6666973233222961
1684108720737149000,5.88214892578125,-1.4020642042160034,-1.0043097734451294,0.4088042974472046
1684108720747167000,5.8921669921875,-1.560310959815979,-0.6825200319290161,0.2366625815629959
1684108720757185000,5.90218505859375,-1.6337230205535889,-0.45933887362480164,0.16497960686683655
1684108720767201800,5.912201904296875,-1.7492953538894653,-0.3625219464302063,0.04226163402199745
1684108720777220000,5.92222021484375,-1.905857801437378,-0.19603867828845978,-0.0016791893867775798
1684108720787238000,5.93223779296875,-2.0529592037200928,-0.001336758490651846,-0.022791940718889236
1684108720797255000,5.9422548828125,-2.213080406188965,0.22202709317207336,-0.027428504079580307
1684108720807273000,5.95227294921875,-2.293412685394287,0.43166252970695496,-0.05350986868143082
1684108720817291000,5.962291015625,-2.07589054107666,0.3694702684879303,-0.18505777418613434
1684108720827308000,5.97230810546875,-1.761789083480835,0.4852071702480316,-0.39506566524505615
1684108720837325800,5.982325927734375,-1.6123745441436768,0.6589190363883972,-0.5985761880874634
1684108720847343900,5.99234375,-1.5526214838027954,0.8388581275939941,-0.7268317937850952
1684108720857361000,6.00236083984375,-1.6626683473587036,0.888703465461731,-0.9276354908943176
1684108720867379000,6.01237890625,-1.8812675476074219,1.1246304512023926,-1.1661441326141357
1684108720877396700,6.022396728515625,-2.195955753326416,1.162911057472229,-1.4411594867706299
1684108720887414000,6.0324140625,-2.4559245109558105,1.2863088846206665,-1.9380853176116943
1684108720897431800,6.042431884765625,-2.628382444381714,1.8138866424560547,-2.6064224243164062
1684108720907449900,6.052449951171875,-2.4634757041931152,2.506499767303467,-3.387078046798706
1684108720917467000,6.062466796875,-1.7989684343338013,2.468210220336914,-4.166477203369141
1684108720927485000,6.07248486328125,-1.0538065433502197,2.04744815826416,-3.4413368701934814
1684108720937503000,6.0825029296875,-0.8312092423439026,1.156036615371704,-2.43615984916687
1684108720947521000,6.09252099609375,-0.7179818153381348,0.6202084422111511,-1.7476866245269775
1684108720957537800,6.102537841796875,-0.6992230415344238,0.31390684843063354,-0.8893486857414246
1684108720967556000,6.11255615234375,-0.5687627792358398,0.08048354089260101,-0.42591914534568787
1684108720977574000,6.122573974609375,-0.4052785336971283,-0.049011602997779846,-0.21373073756694794
1684108720987591000,6.1325908203125,-0.30792126059532166,-0.2916746735572815,-0.14063838124275208
1684108720997609000,6.14260888671875,-0.33709245920181274,-0.4712127149105072,-0.019786790013313293
1684108721007627000,6.152626953125,-0.3439796268939972,-0.46670886874198914,0.26287972927093506
1684108721017644000,6.16264404296875,-0.14355440437793732,-0.6673517227172852,0.6627663969993591
1684108721027661800,6.172661865234375,0.12319616973400116,-0.9447837471961975,1.0231565237045288
1684108721037679900,6.182679931640625,0.41489219665527344,-1.0057933330535889,1.2628612518310547
1684108721047697000,6.19269677734375,0.8576450347900391,-1.0626384019851685,1.1404379606246948
1684108721057715000,6.20271484375,1.2280668020248413,-1.3943371772766113,0.6543715596199036
1684108721067732700,6.212732666015625,1.3096426725387573,-1.341648817062378,0.2689613103866577
1684108721077750000,6.22275,1.1710443496704102,-2.0390913486480713,0.5572985410690308
1684108721087767800,6.232767822265625,0.7953905463218689,-2.6504077911376953,1.0105297565460205
1684108721097785900,6.242785888671875,0.6376217007637024,-2.8583028316497803,1.2125664949417114
1684108721107804000,6.252803955078125,0.5947057604789734,-2.775977373123169,1.1428027153015137
1684108721117821000,6.262821044921875,0.5972440242767334,-2.9135029315948486,1.075252652168274
1684108721127839000,6.2728388671875,0.7324563264846802,-2.7223563194274902,1.11042058467865
1684108721137857000,6.28285693359375,0.9845505952835083,-2.2438807487487793,0.9579850435256958
1684108721147873800,6.292873779296875,1.390848994255066,-2.1922473907470703,0.9149234294891357
1684108721157892000,6.30289208984375,1.2642700672149658,-2.5237197875976562,0.9423508048057556
1684108721167910000,6.312909912109375,0.9043872356414795,-2.8498427867889404,0.9516230821609497
1684108721177927000,6.322927001953125,0.7667092680931091,-3.24188494682312,1.1156293153762817
1684108721187945000,6.332945068359375,0.6659702062606812,-3.4779324531555176,1.2357114553451538
1684108721197963000,6.342962890625,0.30204498767852783,-3.432631015777588,1.1522910594940186
1684108721207980000,6.35297998046875,-0.1939954161643982,-2.884333848953247,0.8668415546417236
1684108721217998000,6.362998046875,-0.3258240520954132,-1.987515926361084,0.5827003717422485
1684108721228015900,6.373015869140625,-0.31529220938682556,-1.2842426300048828,0.4196508526802063
1684108721238033000,6.383032958984375,-0.1545185148715973,-0.6169501543045044,0.3910573124885559
1684108721248051000,6.393051025390625,0.0871262475848198,-0.10064736008644104,0.27121734619140625
1684108721258068700,6.40306884765625,0.007611713372170925,-0.05228089541196823,0.13933923840522766
1684108721268086800,6.413086669921875,-0.08403224498033524,-0.1784590780735016,0.06168974190950394
1684108721278103800,6.423103759765625,-0.037042632699012756,-0.13434433937072754,0.14402589201927185
1684108721288121900,6.433121826171875,0.1099296435713768,-0.261573851108551,0.06025360897183418
1684108721298140000,6.443139892578125,0.13165144622325897,-0.14515827596187592,-0.010738275945186615
1684108721308157000,6.453156982421875,0.10605376958847046,0.007898815907537937,0.001610573846846819
1684108721318174700,6.4631748046875,-0.018090013414621353,0.20513039827346802,0.0713699460029602
1684108721328193000,6.473193115234375,-0.060683976858854294,0.21637657284736633,0.004419449716806412
1684108721338209800,6.483209716796875,-0.025319859385490417,0.1436280757188797,-0.07225854694843292
1684108721348228000,6.49322802734375,0.0038009388372302055,0.0630534216761589,-0.09328678995370865
1684108721358246000,6.503245849609375,-0.012689621187746525,0.03234850615262985,-0.05952190235257149
1684108721368263000,6.513262939453125,-0.024700315669178963,0.10095836967229843,-0.06124841794371605
1684108721378281000,6.523281005859375,-0.009485943242907524,0.15741953253746033,-0.08034061640501022
1684108721388299000,6.533299072265625,-0.0002593052922748029,0.1647930145263672,-0.09370069205760956
1684108721398316000,6.54331591796875,-0.009040279313921928,0.12584641575813293,-0.1039045974612236
1684108721408334000,6.553333984375,-0.02058844082057476,0.08977797627449036,-0.10075701773166656
1684108721418351900,6.563351806640625,-0.028096158057451248,0.05556567758321762,-0.08445873856544495
1684108721428370000,6.573369873046875,-0.031698547303676605,0.020390555262565613,-0.05993243679404259
1684108721438387000,6.583386962890625,-0.02584252320230007,-0.013306688517332077,-0.04396279156208038
1684108721448405000,6.593405029296875,-0.016652068123221397,-0.045104026794433594,-0.018485333770513535
1684108721458422800,6.6034228515625,-0.0030249401461333036,-0.08860836178064346,0.01544706616550684
1684108721468439800,6.613439697265625,0.019878314808011055,-0.14630557596683502,0.042511630803346634
1684108721478457900,6.623457763671875,0.038660258054733276,-0.20320267975330353,0.059070367366075516
1684108721488476000,6.633475830078125,0.0482715368270874,-0.23833820223808289,0.06563620269298553
1684108721498493000,6.643492919921875,0.05856119096279144,-0.255588561296463,0.06446627527475357
1684108721508510700,6.6535107421875,0.06963616609573364,-0.2772955298423767,0.04572532698512077
1684108721518529000,6.663529052734375,0.08460339903831482,-0.3034363389015198,0.024303125217556953
1684108721528545800,6.6735458984375,0.08926529437303543,-0.3321407735347748,0.014238572679460049
1684108721538563800,6.683563720703125,0.10177949070930481,-0.3086051046848297,0.014158944599330425
1684108721548581600,6.69358154296875,0.10232637822628021,-0.2654026746749878,0.025418365374207497
1684108721558598400,6.703598388671875,0.09092964977025986,-0.21391044557094574,0.03349573537707329
1684108721568616700,6.71361669921875,0.07804713398218155,-0.15775716304779053,0.02116955816745758
1684108721578634500,6.723634521484375,0.06031341478228569,-0.10499460995197296,0.004309352487325668
1684108721588652500,6.733652587890625,0.046647828072309494,-0.05170005187392235,-0.010969191789627075
1684108721598669600,6.743669677734375,0.040642403066158295,-0.00604468397796154,-0.03817764297127724
1684108721608687600,6.7536875,0.03925534710288048,0.025348566472530365,-0.06422962248325348
1684108721618705400,6.763705322265625,0.02946849726140499,0.06546296179294586,-0.06915353983640671
1684108721628722400,6.773722412109375,0.014018375426530838,0.0943971499800682,-0.05910992994904518
1684108721638740500,6.783740478515625,-0.000590394192840904,0.10464020073413849,-0.04189472272992134
1684108721648758500,6.793758544921875,-0.007187842857092619,0.07738673686981201,-0.021538054570555687
1684108721658775600,6.803775634765625,0.001259970129467547,0.034434739500284195,-0.006692529655992985
1684108721668793300,6.81379345703125,0.008594362065196037,0.0038417624309659004,0.005488787777721882
1684108721678811600,6.823811767578125,0.012535041198134422,-0.011582200415432453,0.0050783948972821236
1684108721688828400,6.833828369140625,0.007067386526614428,-0.0005960362032055855,-0.003044108161702752
1684108721698846500,6.843846435546875,0.007234633434563875,0.03200212121009827,-0.007423410192131996
1684108721708864500,6.853864501953125,0.021493393927812576,0.07915667444467545,-0.02306327596306801
1684108721718882600,6.863882568359375,0.03362062945961952,0.13912759721279144,-0.043516356498003006
1684108721728899600,6.873899658203125,0.03523728623986244,0.2090510129928589,-0.06281553953886032
1684108721738917600,6.883917724609375,0.03346042335033417,0.25378653407096863,-0.07883711904287338
1684108721748935400,6.893935302734375,0.031823448836803436,0.26728999614715576,-0.0979272723197937
1684108721758952700,6.90395263671875,0.03535400331020355,0.24946358799934387,-0.11116664856672287
1684108721768970500,6.913970458984375,0.03459666669368744,0.22681279480457306,-0.11947525292634964
1684108721778988500,6.923988525390625,0.023495014756917953,0.24066868424415588,-0.10631044954061508
1684108721789005600,6.934005615234375,0.008589626289904118,0.2509290277957916,-0.09541202336549759
1684108721799023600,6.944023681640625,-0.03011622279882431,0.25499674677848816,-0.08802201598882675
1684108721809041400,6.95404150390625,-0.06711912900209427,0.24914857745170593,-0.07678161561489105
1684108721819058400,6.964058349609375,-0.08051776140928268,0.21975576877593994,-0.05609125643968582
1684108721829076500,6.974076416015625,-0.08481325954198837,0.16133685410022736,-0.033171165734529495
1684108721839094500,6.984094482421875,0.016615096479654312,0.49990183115005493,-0.16155816614627838
1684108721849112600,6.994112548828125,0.08806149661540985,0.7596846222877502,-0.3712249994277954
1684108721859129300,7.00412939453125,0.09561368823051453,0.3300916850566864,-0.2126595675945282
1684108721869147600,7.014147705078125,0.08110164105892181,0.05380639061331749,-0.06413666158914566
1684108721879165700,7.024165771484375,0.056083109229803085,0.12435618788003922,-0.06260348111391068
1684108721889182500,7.034182373046875,0.006317127961665392,0.1413193792104721,-0.06751211732625961
1684108721899200500,7.044200439453125,0.02489214390516281,0.21519306302070618,-0.09988896548748016
1684108721909218600,7.054218505859375,0.09808516502380371,0.24547666311264038,-0.12435636669397354
1684108721919235600,7.064235595703125,0.15604540705680847,-0.016938969492912292,-0.015279952436685562
1684108721929253600,7.074253662109375,0.0897815003991127,-0.5765727758407593,0.2581970691680908
1684108721939271400,7.084271484375,-0.08388323336839676,-0.9215999841690063,0.47726815938949585
1684108721949288700,7.094288818359375,-0.14819416403770447,-0.5413990616798401,0.3843241333961487
1684108721959306500,7.104306396484375,-0.13001090288162231,-0.005475744605064392,0.12064909934997559
1684108721969324500,7.114324462890625,-0.09111643582582474,0.04768414422869682,0.0019850051030516624
1684108721979341600,7.124341552734375,-0.051922161132097244,-0.11186183989048004,0.05220503360033035
1684108721989359600,7.134359619140625,-0.03707750514149666,-0.18884308636188507,0.12250004708766937
1684108721999377400,7.14437744140625,-0.0639038011431694,-0.25709086656570435,0.25807836651802063
1684108722009395700,7.154395751953125,-0.050375040620565414,-0.24769237637519836,0.37884050607681274
1684108722019412500,7.16441259765625,-0.0074411556124687195,-0.31745654344558716,0.43402066826820374
1684108722029430500,7.174430419921875,0.03857572004199028,-0.43973052501678467,0.4297552704811096
1684108722039448600,7.184448486328125,0.0902990996837616,-0.5121650099754333,0.4086204469203949
1684108722049465600,7.194465576171875,0.1227480098605156,-0.5703388452529907,0.36597317457199097
1684108722059483600,7.204483642578125,0.11503949016332626,-0.614396870136261,0.37396931648254395
1684108722069501700,7.214501708984375,0.10666363686323166,-0.676489531993866,0.41889041662216187
1684108722079518500,7.2245185546875,0.1458086371421814,-0.8272625207901001,0.430015504360199
1684108722089536500,7.23453662109375,0.2393411248922348,-1.0680447816848755,0.41618287563323975
1684108722099554600,7.244554443359375,0.34213966131210327,-1.3093767166137695,0.4687720537185669
1684108722109571600,7.254571533203125,0.3946617841720581,-1.5072797536849976,0.6372367739677429
1684108722119589600,7.264589599609375,0.33877134323120117,-1.7631938457489014,0.8537629246711731
1684108722129607400,7.274607421875,0.19311651587486267,-2.198110342025757,1.0378774404525757
1684108722139625500,7.28462548828125,0.042887598276138306,-2.7828903198242188,1.138701319694519
1684108722149642500,7.294642578125,-0.06915062665939331,-3.457285165786743,1.1418684720993042
1684108722159660500,7.30466064453125,-0.10323775559663773,-4.068357467651367,1.0931962728500366
1684108722169678300,7.31467822265625,-0.023557692766189575,-4.367993354797363,1.0659722089767456
1684108722179695600,7.324695556640625,0.18976017832756042,-4.231927394866943,1.0500550270080566
1684108722189713400,7.33471337890625,0.47978541254997253,-3.6857974529266357,1.0326331853866577
1684108722199731700,7.344731689453125,0.7362917065620422,-2.9007821083068848,0.9398586750030518
1684108722209748500,7.35474853515625,0.9947407841682434,-2.0965309143066406,0.751005232334137
1684108722219766500,7.3647666015625,1.2137093544006348,-1.4774433374404907,0.5012806057929993
1684108722229784600,7.37478466796875,1.3629950284957886,-1.0034254789352417,0.3267225921154022
1684108722239801600,7.384801513671875,1.3983566761016846,-0.5815297961235046,0.312162309885025
1684108722249819400,7.3948193359375,1.389220952987671,-0.3393140733242035,0.3485494554042816
1684108722259837700,7.404837646484375,1.3945273160934448,-0.3738451600074768,0.2877998352050781
1684108722269854500,7.4148544921875,1.3447058200836182,-0.5695595145225525,0.1758362054824829
1684108722279872800,7.424872802734375,1.1926428079605103,-0.7584540843963623,0.11142553389072418
1684108722289890600,7.434890625,1.0415135622024536,-0.8374678492546082,0.14644742012023926
1684108722299908600,7.44490869140625,0.8961606621742249,-0.7231239676475525,0.15503132343292236
1684108722309925600,7.454925537109375,0.7825973033905029,-0.5355971455574036,0.11499657481908798
1684108722319943400,7.464943359375,0.6819788217544556,-0.3860792815685272,0.041420623660087585
1684108722329961500,7.47496142578125,0.5805035829544067,-0.31718504428863525,-0.02971620485186577
1684108722339978500,7.484978515625,0.4884341359138489,-0.3062351942062378,-0.04139070585370064
1684108722349996500,7.49499658203125,0.4074951112270355,-0.33177679777145386,-0.009526544250547886
1684108722360014300,7.505014404296875,0.35755258798599243,-0.33831989765167236,0.03523799777030945
1684108722370031600,7.515031494140625,0.3348864018917084,-0.30242663621902466,0.08351299911737442
1684108722380049400,7.52504931640625,0.3287124037742615,-0.25671347975730896,0.1141665130853653
1684108722390067500,7.5350673828125,0.35046690702438354,-0.21615469455718994,0.0949237048625946
1684108722400085500,7.54508544921875,0.36347004771232605,-0.16806572675704956,0.05596352368593216
1684108722410102500,7.5551025390625,0.3300562798976898,-0.11705997586250305,0.00011661049211397767
1684108722420120600,7.56512060546875,0.2667979598045349,-0.07333619892597198,-0.02446836046874523
1684108722430138600,7.575138671875,0.21981699764728546,-0.020615186542272568,-0.0035844387020915747
1684108722440155400,7.5851552734375,0.18493065237998962,0.05271708592772484,0.04531386122107506
1684108722450173700,7.595173583984375,0.19122542440891266,0.20043204724788666,0.07316503673791885
1684108722460191500,7.60519140625,0.2141917198896408,0.4113485515117645,0.06585173308849335
1684108722470208800,7.615208740234375,0.21677757799625397,0.6036871671676636,0.043164875358343124
1684108722480226600,7.6252265625,0.2086235135793686,0.7256476879119873,0.0236353799700737
1684108722490244600,7.63524462890625,0.20868486166000366,0.7619231939315796,0.007425606716424227
1684108722500261600,7.64526171875,0.1912267804145813,0.6869208216667175,-0.018348464742302895
1684108722510279700,7.65527978515625,0.1586446613073349,0.5448436141014099,-0.04609224200248718
1684108722520297500,7.66529736328125,0.11099272221326828,0.43572989106178284,-0.05919685959815979
1684108722530314500,7.675314453125,0.07296644896268845,0.40179190039634705,-0.07191555947065353
1684108722540332500,7.68533251953125,0.03845641389489174,0.34911537170410156,-0.06621053069829941
1684108722550351000,7.69535107421875,0.029025310650467873,0.23995815217494965,-0.07148467749357224
1684108722560369000,7.705368896484375,0.03586510941386223,0.043561749160289764,-0.06509441882371902
1684108722570386000,7.715385986328125,0.04836064577102661,-0.23708659410476685,-0.04121753200888634
1684108722580404000,7.725404052734375,0.05370907485485077,-0.5490836501121521,-0.014145168475806713
1684108722590422300,7.73542236328125,0.057076435536146164,-0.8247959017753601,0.0007120441878214478
1684108722600439000,7.74543896484375,0.07189346104860306,-1.0289804935455322,0.03474298119544983
1684108722610456800,7.755456787109375,0.09855390340089798,-1.1538610458374023,0.10888610780239105
1684108722620475100,7.76547509765625,0.12253966182470322,-1.2166780233383179,0.200645312666893
1684108722630492000,7.775491943359375,0.14353133738040924,-1.258799433708191,0.2725014388561249
1684108722640510200,7.78551025390625,0.14852610230445862,-1.3555632829666138,0.3027626872062683
1684108722650528000,7.795528076171875,0.10870762169361115,-1.4816898107528687,0.3044026792049408
1684108722660545000,7.805544921875,0.034644048660993576,-1.5740492343902588,0.3051187992095947
1684108722670563000,7.81556298828125,-0.04347921162843704,-1.596588373184204,0.3125288188457489
1684108722680581000,7.8255810546875,-0.0796489417552948,-1.5355290174484253,0.3397490084171295
1684108722690599000,7.835598876953125,-0.07199566066265106,-1.3595482110977173,0.3736061155796051
1684108722700616200,7.8456162109375,-0.01631268858909607,-1.1015512943267822,0.3683335781097412
1684108722710634000,7.855634033203125,0.0639725849032402,-0.7917733192443848,0.32695940136909485
1684108722720652000,7.865652099609375,0.1303129941225052,-0.46642452478408813,0.26314765214920044
1684108722730669000,7.8756689453125,0.1654665470123291,-0.1934162676334381,0.18610432744026184
1684108722740687000,7.88568701171875,0.22157056629657745,0.027172833681106567,0.072589211165905
1684108722750705000,7.895704833984375,0.28876814246177673,0.20944243669509888,-0.023234773427248
1684108722760722000,7.905721923828125,0.34756380319595337,0.2984924018383026,-0.08761163055896759
1684108722770740000,7.915739990234375,0.43669381737709045,0.2186366319656372,-0.13234831392765045
1684108722780758000,7.925758056640625,0.5479364991188049,-0.0032084165140986443,-0.1282196193933487
1684108722790776000,7.935776123046875,0.6066809296607971,-0.2505727708339691,-0.14256595075130463
1684108722800792800,7.945792724609375,0.5722113847732544,-0.42744180560112,-0.3032733201980591
1684108722810811100,7.95581103515625,0.48649290204048157,-0.4640117287635803,-0.6050900816917419
1684108722820829200,7.9658291015625,0.3546864092350006,-0.3144344687461853,-0.8636475801467896
1684108722830846000,7.975845947265625,0.16271328926086426,-0.09747321903705597,-0.8721494078636169
1684108722840864000,7.985864013671875,-0.05506351217627525,-0.06510835140943527,-0.5514742136001587
1684108722850882000,7.995882080078125,-0.23896457254886627,-0.277411550283432,-0.11953986436128616
1684108722860899000,8.005899169921875,-0.32461825013160706,-0.5266192555427551,0.13022416830062866
1684108722870917000,8.015917236328125,-0.3374876379966736,-0.6342955827713013,0.23176811635494232
1684108722880935000,8.025934814453125,-0.3411654829978943,-0.5744522213935852,0.2784394919872284
1684108722890952200,8.0359521484375,-0.3056888282299042,-0.4481104016304016,0.31024545431137085
1684108722900970000,8.045969970703124,-0.23203778266906738,-0.3059016168117523,0.3237045407295227
1684108722910988000,8.055988037109374,-0.16693228483200073,-0.2079635113477707,0.2980932295322418
1684108722921006000,8.066006103515624,-0.13508833944797516,-0.1785305142402649,0.2098962664604187
1684108722931023000,8.076023193359376,-0.12908974289894104,-0.18344378471374512,0.059644803404808044
1684108722941041000,8.086041015625,-0.13886220753192902,-0.18343687057495117,-0.15965744853019714
1684108722951059200,8.09605908203125,-0.16509215533733368,-0.1656302511692047,-0.38818445801734924
1684108722961076000,8.106075927734375,-0.19624048471450806,-0.12297147512435913,-0.5575984716415405
1684108722971094000,8.116093994140625,-0.24895545840263367,-0.01745775155723095,-0.6647952795028687
1684108722981112000,8.126112060546875,-0.3302050530910492,0.16727641224861145,-0.6975628137588501
1684108722991128800,8.13612890625,-0.41103169322013855,0.41731104254722595,-0.6357460021972656
1684108723001147100,8.146147216796875,-0.4463510811328888,0.5787193775177002,-0.44781041145324707
1684108723011165200,8.156165283203125,-0.39926183223724365,0.4717281758785248,-0.1574903279542923
1684108723021182000,8.166181884765624,-0.2835807800292969,0.1210537850856781,0.06750044971704483
1684108723031200000,8.176199951171874,-0.05523242801427841,-0.331271231174469,0.16302375495433807
1684108723041218000,8.186218017578126,0.25964242219924927,-0.6285561919212341,0.35406962037086487
1684108723051236000,8.196236083984376,0.439428448677063,-0.7543184757232666,0.6576367020606995
1684108723061253000,8.206253173828125,0.37942132353782654,-0.9389820694923401,0.7670231461524963
1684108723071271000,8.21627099609375,0.17396344244480133,-1.083498239517212,0.5074815154075623
1684108723081289000,8.2262890625,-0.004052641335874796,-0.822742223739624,0.14378108084201813
1684108723091306000,8.236305908203125,-0.12239117175340652,-0.1065717339515686,-0.02136683277785778
1684108723101324000,8.246323974609375,-0.2656753659248352,0.6689868569374084,-0.02540578320622444
1684108723111342000,8.256342041015625,-0.41127029061317444,1.1597342491149902,-0.015034378506243229
1684108723121359000,8.266359130859374,-0.46935516595840454,1.2053155899047852,-0.11686327308416367
1684108723131377000,8.276376953125,-0.39808377623558044,0.8428714275360107,-0.3434687852859497
1684108723141395200,8.286395263671874,-0.22562864422798157,0.30220332741737366,-0.4834407866001129
1684108723151412000,8.296411865234376,-0.016863349825143814,-0.1721561700105667,-0.4845404326915741
1684108723161430000,8.306429931640626,0.11839646846055984,-0.51657634973526,-0.4798838794231415
1684108723171448000,8.316447998046876,0.1397504210472107,-0.6719523072242737,-0.519500732421875
1684108723181466000,8.326466064453125,0.09666421264410019,-0.5289000868797302,-0.5475686192512512
1684108723191483100,8.336483154296875,0.05014928802847862,-0.0954759418964386,-0.4702528119087219
1684108723201501200,8.346501220703125,0.01985955610871315,0.48625776171684265,-0.2250308096408844
1684108723211519000,8.35651904296875,0.010615608654916286,0.902072548866272,0.041194282472133636
1684108723221536000,8.366535888671875,0.015503574162721634,1.0058444738388062,0.14542055130004883
1684108723231554000,8.376553955078125,0.025155704468488693,0.887937605381012,0.12055021524429321
1684108723241572000,8.386572021484374,0.03426291421055794,0.6362046599388123,0.07203035056591034
1684108723251589000,8.396589111328124,0.031273968517780304,0.35565441846847534,0.02583688125014305
1684108723261607000,8.40660693359375,0.025997981429100037,0.14777684211730957,-0.016259972006082535
1684108723271625000,8.416625,0.021439922973513603,0.026093818247318268,-0.09378668665885925
1684108723281643300,8.426643310546876,0.008563006296753883,-0.07911382615566254,-0.17586557567119598
1684108723291660000,8.436659912109375,-0.022346800193190575,-0.13841338455677032,-0.18987417221069336
1684108723301677800,8.446677734375,-0.06378771364688873,-0.15356676280498505,-0.11651686578989029
1684108723311696100,8.456696044921875,-0.1025136336684227,-0.16062813997268677,-0.017611678689718246
1684108723321713000,8.466712890625,-0.1085217222571373,-0.1604108214378357,0.06678895652294159
1684108723331731200,8.476731201171875,-0.08882725983858109,-0.0989508256316185,0.11467738449573517
1684108723341749000,8.4867490234375,-0.06822744756937027,0.02398308552801609,0.13558505475521088
1684108723351766000,8.49676611328125,-0.06483187526464462,0.1570458710193634,0.1346263438463211
1684108723361784000,8.5067841796875,-0.08774518221616745,0.2574033737182617,0.1154174879193306
1684108723371802000,8.516802001953126,-0.11940503120422363,0.30755940079689026,0.06727278977632523
1684108723381819100,8.526819091796876,-0.14742495119571686,0.3203638792037964,0.013678266666829586
1684108723391837200,8.536837158203125,-0.16241012513637543,0.3345412313938141,-0.02777365781366825
1684108723401855000,8.54685498046875,-0.1461600512266159,0.41955065727233887,-0.04256698489189148
1684108723411873000,8.556873046875,-0.10003907978534698,0.56182861328125,-0.029498668387532234
1684108723421890000,8.56689013671875,-0.03201369196176529,0.653433084487915,0.008569089695811272
1684108723431908000,8.576908203125,0.027072161436080933,0.619758129119873,0.05653263255953789
1684108723441926000,8.58692578125,0.03649575635790825,0.4519454538822174,0.11522657424211502
1684108723451943000,8.59694287109375,0.026618288829922676,0.20558181405067444,0.18420225381851196
1684108723461961000,8.6069609375,0.012877709232270718,-0.024226346984505653,0.2401142567396164
1684108723471979300,8.616979248046874,-0.010351655073463917,-0.17849475145339966,0.2674939036369324
1684108723481996000,8.62699609375,-0.0319480262696743,-0.21454010903835297,0.2336864173412323
1684108723492013800,8.637013916015626,-0.032596588134765625,-0.12470085173845291,0.17879614233970642
1684108723502032100,8.6470322265625,-0.010890494100749493,0.04330120608210564,0.10832330584526062
1684108723512050200,8.65705029296875,0.007400664500892162,0.22231410443782806,0.038963522762060165
1684108723522067000,8.66706689453125,0.009319472126662731,0.32721975445747375,-0.0055943564511835575
1684108723532085000,8.6770849609375,0.0002458158414810896,0.3375442922115326,-0.010633589699864388
1684108723542103000,8.68710302734375,-0.019745202735066414,0.26768800616264343,0.032698169350624084
1684108723552119800,8.697119873046875,-0.049773745238780975,0.15663158893585205,0.09692490845918655
1684108723562137900,8.707137939453125,-0.06945530325174332,0.0523882731795311,0.14787010848522186
1684108723572155600,8.71715576171875,-0.05974024534225464,-0.0012808195315301418,0.1548595130443573
1684108723582173000,8.7271728515625,-0.048948317766189575,-0.016607843339443207,0.12911686301231384
1684108723592190700,8.737190673828126,-0.04298512637615204,0.031148310750722885,0.09772510826587677
1684108723602208800,8.747208740234376,-0.04830079525709152,0.10544091463088989,0.07711517065763474
1684108723612226800,8.757226806640626,-0.05587458610534668,0.1612709015607834,0.07903919368982315
1684108723622243800,8.767243896484375,-0.062295202165842056,0.17573532462120056,0.08616209030151367
1684108723632261600,8.77726171875,-0.071465402841568,0.14896060526371002,0.08839742839336395
1684108723642280000,8.787280029296875,-0.06736333668231964,0.11961151659488678,0.08591616153717041
1684108723652296700,8.797296630859375,-0.052758894860744476,0.1119997575879097,0.07979869842529297
1684108723662315000,8.80731494140625,-0.04470762610435486,0.1453169584274292,0.07110480964183807
1684108723672332800,8.817332763671875,-0.033633679151535034,0.19360469281673431,0.058658573776483536
1684108723682349600,8.827349609375,-0.026775240898132324,0.2457115650177002,0.03702891245484352
1684108723692368000,8.837367919921874,-0.025833560153841972,0.2887038588523865,0.017380157485604286
1684108723702386000,8.847385986328124,-0.03992008417844772,0.29979434609413147,0.009177888743579388
1684108723712403000,8.85740283203125,-0.05151987820863724,0.2834412753582001,0.006323621142655611
1684108723722420700,8.867420654296875,-0.05704966560006142,0.2420610934495926,0.02068072184920311
1684108723732438800,8.877438720703125,-0.05343713238835335,0.18011213839054108,0.04597114771604538
1684108723742456600,8.88745654296875,-0.03395051509141922,0.10331696271896362,0.08888159692287445
1684108723752473900,8.897473876953125,-0.015152061358094215,0.018717391416430473,0.12425902485847473
1684108723762491600,8.90749169921875,-0.0031859453301876783,-0.055768825113773346,0.13818363845348358
1684108723772509700,8.917509765625,-0.0092404093593359,-0.08677218854427338,0.12016168981790543
1684108723782526700,8.927526611328124,-0.017824310809373856,-0.0778585821390152,0.07772821187973022
1684108723792544800,8.937544677734374,-0.019367670640349388,-0.042592473328113556,0.03164384141564369
1684108723802562800,8.947562744140624,-0.01215769350528717,0.005657346919178963,0.0044090221635997295
1684108723812579800,8.957579833984376,-0.009987438097596169,0.04287990182638168,-0.008895314298570156
1684108723822597600,8.96759765625,-0.009573317132890224,0.05830413103103638,0.0005615705158561468
1684108723832616000,8.977615966796876,-0.011159460991621017,0.040972981601953506,0.015020736493170261
1684108723842633700,8.9876337890625,-0.020959360525012016,0.005389955826103687,0.015023400075733662
1684108723852651000,8.997651123046875,-0.02723214589059353,-0.03659708425402641,-0.010866883210837841
1684108723862668800,9.007668701171875,-0.02212660014629364,-0.06447185575962067,-0.04844888299703598
1684108723872686800,9.017686767578125,-0.024540675804018974,-0.06622758507728577,-0.08615510165691376
1684108723882704000,9.027703857421875,-0.0149173429235816,-0.05730146914720535,-0.12560291588306427
1684108723892722000,9.037721923828125,0.005410530138760805,-0.07654228061437607,-0.1653594970703125
1684108723902739700,9.04773974609375,0.011101172305643559,-0.1587601900100708,-0.1904912292957306
1684108723912756700,9.0577568359375,-0.008425494655966759,-0.2756165862083435,-0.19498129189014435
1684108723922774800,9.06777490234375,-0.048412855714559555,-0.4044014811515808,-0.16644525527954102
1684108723932792800,9.077792724609376,-0.09810896962881088,-0.5037254691123962,-0.09487555176019669
1684108723942811000,9.087810791015626,-0.15128804743289948,-0.5638588070869446,0.0030789782758802176
1684108723952827600,9.09782763671875,-0.19234101474285126,-0.549513041973114,0.10015904903411865
1684108723962845700,9.107845703125,-0.1941612809896469,-0.44300520420074463,0.16795779764652252
1684108723972863700,9.11786376953125,-0.14401182532310486,-0.24486711621284485,0.17493261396884918
1684108723982880800,9.127880859375,-0.07157331705093384,0.027759626507759094,0.10019074380397797
1684108723992898800,9.13789892578125,-0.0055883945897221565,0.33585870265960693,-0.007465131115168333
1684108724002916900,9.147916748046875,0.03992076590657234,0.5843406915664673,-0.09936335682868958
1684108724012933600,9.15793359375,0.07653438299894333,0.701901912689209,-0.14113260805606842
1684108724022952000,9.167951904296874,0.10710321366786957,0.6831024289131165,-0.12789244949817657
1684108724032969700,9.1779697265625,0.12646174430847168,0.5625729560852051,-0.07981577515602112
1684108724042987800,9.18798779296875,0.1346839815378189,0.37055879831314087,-0.040219634771347046
1684108724053004800,9.1980048828125,0.13924282789230347,0.14399364590644836,-0.032350242137908936
1684108724063022800,9.20802294921875,0.13651041686534882,-0.057541340589523315,-0.03124369867146015
1684108724073040600,9.21804052734375,0.11257331818342209,-0.2178037017583847,-0.025853009894490242
1684108724083058000,9.228057861328125,0.060318101197481155,-0.35397088527679443,-0.031525008380413055
1684108724093075700,9.23807568359375,0.0006382148712873459,-0.4554468095302582,-0.041877057403326035
1684108724103093800,9.24809375,-0.05151473358273506,-0.5144810676574707,-0.05239894241094589
1684108724113110800,9.25811083984375,-0.08348143845796585,-0.5094329118728638,-0.06653904169797897
1684108724123128800,9.26812890625,-0.09859009087085724,-0.42692843079566956,-0.0746944397687912
1684108724133147000,9.27814697265625,-0.08538274466991425,-0.30887654423713684,-0.09335779398679733
1684108724143165000,9.2881650390625,-0.06077779829502106,-0.18477323651313782,-0.11936968564987183
1684108724153181700,9.298181640625,-0.024425512179732323,-0.05904211476445198,-0.1467418223619461
1684108724163200000,9.308199951171876,0.010913570411503315,0.07843105494976044,-0.1664404273033142
1684108724173217800,9.3182177734375,0.024746909737586975,0.21372346580028534,-0.1911512166261673
1684108724183234800,9.32823486328125,0.019260797649621964,0.29629048705101013,-0.20860157907009125
1684108724193252900,9.3382529296875,0.013948983512818813,0.30705785751342773,-0.18457624316215515
1684108724203270700,9.348270751953125,0.007156857755035162,0.24365676939487457,-0.11128818243741989
1684108724213288000,9.358287841796875,0.013021555729210377,0.11702746152877808,-0.016314741224050522
1684108724223305700,9.3683056640625,0.01544370036572218,-0.05834729224443436,0.05215193331241608
1684108724233323800,9.37832373046875,0.02831013686954975,-0.194928839802742,0.07461561262607574
1684108724243341600,9.388341552734374,0.04412691667675972,-0.22734297811985016,0.07750753313302994
1684108724253358800,9.39835888671875,0.05045057833194733,-0.1636403501033783,0.07358155399560928
1684108724263376600,9.408376708984376,0.048400480300188065,-0.05209783464670181,0.05280303210020065
1684108724273395000,9.41839501953125,0.046867113560438156,0.05240495875477791,0.01637166179716587
1684108724283411700,9.42841162109375,0.04142787307500839,0.10308997333049774,-0.022549372166395187
1684108724293429800,9.4384296875,0.029690546914935112,0.09363238513469696,-0.05673593282699585
1684108724303447800,9.44844775390625,0.013929693028330803,0.03839389979839325,-0.08633697032928467
1684108724313464800,9.45846484375,-0.010964888148009777,-0.030020050704479218,-0.09770020097494125
1684108724323482600,9.468482666015625,-0.04482192173600197,-0.0843605175614357,-0.07433576136827469
1684108724333501000,9.4785009765625,-0.07732098549604416,-0.10853580385446548,-0.01597161777317524
1684108724343518700,9.488518798828125,-0.09458838403224945,-0.10793313384056091,0.03413815796375275
1684108724353536000,9.498535888671874,-0.08001051098108292,-0.07112424820661545,0.0299396812915802
1684108724363553800,9.5085537109375,-0.04693005606532097,-0.015288414433598518,-0.01995384320616722
1684108724373571800,9.51857177734375,-0.027204856276512146,0.0566486231982708,-0.07172927260398865
1684108724383588900,9.5285888671875,-0.016493888571858406,0.11180907487869263,-0.09500051289796829
1684108724393607000,9.53860693359375,-0.02173563651740551,0.14561045169830322,-0.0548732727766037
1684108724403624700,9.548624755859375,-0.01030321978032589,0.17796306312084198,0.1267460584640503
1684108724413641700,9.558641845703125,0.01388414204120636,0.23139460384845734,0.40585651993751526
1684108724423659800,9.56865966796875,0.03590608388185501,0.22890028357505798,0.5422029495239258
1684108724433677600,9.578677490234375,0.039657823741436005,0.14684492349624634,0.4842531681060791
1684108724443695900,9.58869580078125,0.03519409894943237,0.06365176290273666,0.34375864267349243
1684108724453712600,9.598712646484374,0.011385216377675533,0.019742712378501892,0.244318887591362
1684108724463730700,9.608730712890624,-0.018667491152882576,-0.008719556033611298,0.171973317861557
1684108724473748700,9.618748779296874,-0.04636127129197121,-0.06086406484246254,0.09353631734848022
1684108724483765800,9.628765869140626,-0.05769062787294388,-0.1315012127161026,0.021216310560703278
1684108724493783800,9.63878369140625,-0.04354086145758629,-0.18105687201023102,-0.026385406032204628
1684108724503801900,9.6488017578125,-0.02947297692298889,-0.17091715335845947,-0.05301035940647125
1684108724513819600,9.658819580078125,-0.02516896091401577,-0.11080099642276764,-0.04522446542978287
1684108724523837000,9.6688369140625,-0.02740468457341194,-0.02433747798204422,-0.04367557168006897
1684108724533854700,9.678854736328125,-0.021138081327080727,0.04239964485168457,-0.07334892451763153
1684108724543872800,9.688872802734375,-0.00274655781686306,0.09355524182319641,-0.12522783875465393
1684108724553890000,9.69889013671875,0.024873675778508186,0.16856689751148224,-0.1683095395565033
1684108724563907800,9.708907958984375,0.04504445567727089,0.2634366750717163,-0.18852879106998444
1684108724573926000,9.71892578125,0.05294713377952576,0.37112364172935486,-0.17845889925956726
1684108724583943000,9.72894287109375,0.05207681283354759,0.4449629783630371,-0.15531043708324432
1684108724593961000,9.7389609375,0.061175595968961716,0.4552406668663025,-0.12894397974014282
1684108724603978800,9.748978759765626,0.07797188311815262,0.39698562026023865,-0.10030729323625565
1684108724613997000,9.7589970703125,0.07616330683231354,0.26079410314559937,-0.07586922496557236
1684108724624013800,9.769013916015625,0.05764182284474373,0.06997942924499512,-0.05605131387710571
1684108724634032000,9.7790322265625,0.03266637772321701,-0.09113621711730957,-0.04312136769294739
1684108724644050000,9.7890498046875,0.010881184600293636,-0.16210146248340607,-0.05166824907064438
1684108724654066700,9.799066650390625,0.012350195087492466,-0.11420044302940369,-0.09977303445339203
1684108724664085000,9.8090849609375,0.030437584966421127,0.023953163996338844,-0.16459864377975464
1684108724674103000,9.81910302734375,0.06288175284862518,0.16929863393306732,-0.19339802861213684
1684108724684120000,9.8291201171875,0.08362298458814621,0.2772626578807831,-0.18386763334274292
1684108724694137900,9.839137939453124,0.0645977035164833,0.3411252796649933,-0.16078658401966095
1684108724704156000,9.849156005859374,0.029791783541440964,0.35607385635375977,-0.16640213131904602
1684108724714173700,9.859173583984376,0.004290821962058544,0.33955639600753784,-0.16540445387363434
1684108724724191000,9.86919091796875,-0.010371478274464607,0.28481727838516235,-0.1447276771068573
1684108724734208800,9.879208740234375,-0.019630534574389458,0.1776110827922821,-0.1023125872015953
1684108724744226800,9.889226806640625,-0.02350490167737007,0.057089466601610184,-0.03312099352478981
1684108724754243800,9.899243896484375,-0.038220152258872986,-0.02599548175930977,0.048605311661958694
1684108724764262000,9.909261962890625,-0.05420950800180435,-0.0963711142539978,0.12666654586791992
1684108724774280000,9.919280029296875,-0.03635677322745323,-0.21871742606163025,0.14375759661197662
1684108724784297000,9.929296875,0.026444027200341225,-0.33598095178604126,0.09267336875200272
1684108724794314800,9.939314697265624,0.08717801421880722,-0.4031566083431244,0.03817462921142578
1684108724804333000,9.9493330078125,0.10777037590742111,-0.4465498924255371,0.03965055197477341
1684108724814350800,9.959350830078124,0.09486616402864456,-0.509770393371582,0.09318440407514572
1684108724824368000,9.9693681640625,0.06553278118371964,-0.5985357165336609,0.18045300245285034
1684108724834386000,9.979385986328126,0.002668980276212096,-0.6362456679344177,0.23496070504188538
1684108724844404000,9.989404052734375,-0.059765104204416275,-0.5806617736816406,0.23721347749233246
1684108724854421000,9.9994208984375,-0.09431233257055283,-0.4731190800666809,0.1865767538547516
1684108724864439000,10.00943896484375,-0.08855537325143814,-0.3460964262485504,0.09610278904438019
1684108724874456800,10.019456787109375,-0.06467542052268982,-0.21152175962924957,-0.009776431135833263
1684108724884475000,10.029474853515625,-0.0343896821141243,-0.050236187875270844,-0.11616651713848114
1684108724894492000,10.039491943359375,-0.013580854050815105,0.1118856817483902,-0.2011358141899109
1684108724904510000,10.049510009765624,-0.010314220562577248,0.2009071707725525,-0.26806238293647766
1684108724914528000,10.059528076171874,-0.007781657390296459,0.17583796381950378,-0.3064204156398773
1684108724924544800,10.069544677734376,-0.007989117875695229,0.062397945672273636,-0.2903706133365631
1684108724934562800,10.079562744140626,-0.011238694190979004,-0.07211095094680786,-0.21378374099731445
1684108724944580900,10.089580810546876,-0.026040811091661453,-0.17945843935012817,-0.11898186057806015
1684108724954598000,10.099597900390625,-0.04019847884774208,-0.2433016151189804,-0.0739188939332962
1684108724964616000,10.109615966796875,-0.03668603673577309,-0.27071645855903625,-0.07302034646272659
1684108724974634000,10.119634033203125,-0.020137740299105644,-0.2630375027656555,-0.09705933928489685
1684108724984651800,10.12965185546875,-0.00889680441468954,-0.24102753400802612,-0.1196645200252533
1684108724994669000,10.1396689453125,-0.008750572800636292,-0.21617668867111206,-0.1321479231119156
1684108725004686800,10.149686767578125,-0.007022447884082794,-0.1850171685218811,-0.1335175782442093
1684108725014705000,10.159704833984375,0.0029918488580733538,-0.16108450293540955,-0.1400682032108307
1684108725024722000,10.169721923828124,0.018080255016684532,-0.1439308077096939,-0.15267294645309448
1684108725034740000,10.179739990234374,0.02965240553021431,-0.1464683562517166,-0.1581682413816452
1684108725044757800,10.1897578125,0.031519815325737,-0.15617850422859192,-0.15627633035182953
1684108725054775000,10.199775146484376,0.028156090527772903,-0.17706994712352753,-0.14594148099422455
1684108725064792800,10.209792724609375,0.019482707604765892,-0.19650383293628693,-0.13314099609851837
1684108725074811000,10.219810791015625,0.02623969316482544,-0.2250111848115921,-0.12523198127746582
1684108725084829000,10.229828857421875,0.027221601456403732,-0.25485458970069885,-0.12897291779518127
1684108725094846000,10.239845947265625,0.01468269620090723,-0.28064197301864624,-0.13274931907653809
1684108725104864000,10.249864013671875,0.0012989806709811091,-0.2852548360824585,-0.13338421285152435
1684108725114882000,10.259882080078125,-0.011959069408476353,-0.2662731409072876,-0.13290336728096008
1684108725124898800,10.26989892578125,-0.012314069084823132,-0.23081237077713013,-0.1435304433107376
1684108725134917000,10.279917236328124,-0.0031640836969017982,-0.18554483354091644,-0.16383223235607147
1684108725144935000,10.289934814453124,0.02092660591006279,-0.16732855141162872,-0.1904318928718567
1684108725154953000,10.299952880859376,0.04123574495315552,-0.18142271041870117,-0.20269139111042023
1684108725164970000,10.309969970703126,0.04318757727742195,-0.19950637221336365,-0.1943647414445877
1684108725174988000,10.319988037109376,0.019704366102814674,-0.18710091710090637,-0.1726674884557724
1684108725185005800,10.330005859375,-0.023076653480529785,-0.1435430496931076,-0.15713512897491455
1684108725195022800,10.34002294921875,-0.06416501849889755,-0.07814709842205048,-0.15372629463672638
1684108725205041000,10.350041015625,-0.06667131930589676,-0.011569129303097725,-0.14998295903205872
1684108725215058700,10.36005859375,-0.042104799300432205,0.030745480209589005,-0.16191940009593964
1684108725225076000,10.370075927734375,-0.0022495302837342024,0.061193399131298065,-0.21398073434829712
1684108725235093800,10.38009375,0.053298477083444595,0.10185320675373077,-0.326204776763916
1684108725245112000,10.390112060546874,0.1076679676771164,0.17272792756557465,-0.374360054731369
1684108725255129900,10.4001298828125,0.11615245789289474,0.24193565547466278,-0.29319262504577637
1684108725265147000,10.41014697265625,0.02905217558145523,0.18639783561229706,-0.2246311455965042
1684108725275165000,10.4201650390625,-0.0804537907242775,-0.08478803932666779,-0.34215521812438965
1684108725285183000,10.430182861328126,-0.10214204341173172,-0.3886027932167053,-0.5624169707298279
1684108725295199700,10.44019970703125,-0.08411905169487,-0.5081767439842224,-0.6937414407730103
1684108725305218000,10.450218017578125,-0.11299330741167068,-0.41428783535957336,-0.6566811800003052
1684108725315235800,10.46023583984375,-0.17951564490795135,-0.21897487342357635,-0.49530163407325745
1684108725325253000,10.470253173828125,-0.23213784396648407,-0.05655054375529289,-0.3406979441642761
1684108725335271000,10.48027099609375,-0.24286332726478577,-0.037928566336631775,-0.2642054557800293
1684108725345289000,10.4902890625,-0.21400798857212067,-0.1589585840702057,-0.24526876211166382
1684108725355306800,10.500306640625,-0.17676682770252228,-0.3465629518032074,-0.22539006173610687
1684108725365324000,10.510323974609374,-0.14585179090499878,-0.5315815210342407,-0.1750374138355255
1684108725375341800,10.520341796875,-0.11672302335500717,-0.690792977809906,-0.11422714591026306
1684108725385360100,10.530360107421876,-0.08862987160682678,-0.8049474954605103,-0.07421234995126724
1684108725395377000,10.540376953125,-0.05435339733958244,-0.8474740982055664,-0.07132703810930252
1684108725405395000,10.55039501953125,-0.01500812079757452,-0.7722507119178772,-0.10778225213289261
1684108725415413000,10.5604130859375,0.021602781489491463,-0.5697057843208313,-0.17479167878627777
1684108725425431000,10.57043115234375,0.044729139655828476,-0.26071897149086,-0.24394890666007996
1684108725435447800,10.58044775390625,0.04418320208787918,0.0710277408361435,-0.2857201397418976
1684108725445465900,10.5904658203125,0.017119627445936203,0.32431671023368835,-0.2815381586551666
1684108725455484000,10.60048388671875,0.002192113781347871,0.4405272305011749,-0.22943036258220673
1684108725465501000,10.6105009765625,-0.0034444667398929596,0.4541485011577606,-0.1524287909269333
1684108725475519000,10.62051904296875,-0.010525766760110855,0.39558088779449463,-0.07728448510169983
1684108725485536800,10.630536865234374,-0.006046595983207226,0.3049582839012146,-0.022717373445630074
1684108725495554000,10.640553955078126,-0.0011145267635583878,0.21434006094932556,0.014123953878879547
1684108725505571800,10.65057177734375,-0.021068260073661804,0.13053864240646362,0.028932727873325348
1684108725515590000,10.66058984375,-0.06643690168857574,0.02617931365966797,0.02922297827899456
1684108725525608000,10.67060791015625,-0.10600694268941879,-0.08772169053554535,0.03456421196460724
1684108725535625000,10.680625,-0.12821027636528015,-0.20707914233207703,0.07254146784543991
1684108725545642800,10.690642822265625,-0.11681752651929855,-0.3094066083431244,0.1408883035182953
1684108725555660800,10.700660888671875,-0.06348133087158203,-0.3639982044696808,0.20657730102539062
1684108725565677800,10.710677734375,-0.005597795359790325,-0.3382640779018402,0.25173836946487427
1684108725575696000,10.72069580078125,0.028298281133174896,-0.22533850371837616,0.25155726075172424
1684108725585714000,10.7307138671875,0.04121274873614311,-0.06529930233955383,0.23526057600975037
1684108725595731700,10.740731689453124,0.04722386226058006,0.07965736091136932,0.22203034162521362
1684108725605749000,10.7507490234375,0.04648616537451744,0.15731167793273926,0.22448763251304626
1684108725615766800,10.760766845703126,0.03147200495004654,0.17130392789840698,0.23291045427322388
1684108725625784800,10.770784912109375,0.012426941655576229,0.144962340593338,0.24614982306957245
1684108725635801900,10.7808017578125,0.0039045261219143867,0.10302455723285675,0.25618988275527954
1684108725645820000,10.79081982421875,0.00816265493631363,0.06182465702295303,0.2520095109939575
1684108725655837700,10.800837646484375,0.01881050318479538,0.03600947558879852,0.2335260510444641
1684108725665854700,10.810854736328125,0.029541445896029472,0.02623753994703293,0.20865532755851746
1684108725675872800,10.820872802734375,0.03529871627688408,0.0257469043135643,0.18277479708194733
1684108725685890600,10.830890625,0.042661555111408234,0.029788516461849213,0.1688067764043808
1684108725695908900,10.840908935546874,0.04516306519508362,0.03814764693379402,0.15373195707798004
1684108725705925600,10.850925537109376,0.052056122571229935,0.043475568294525146,0.14433498680591583
1684108725715944000,10.86094384765625,0.04462102800607681,0.04120646417140961,0.13278979063034058
1684108725725961700,10.870961669921876,0.03533591702580452,0.024805385619401932,0.1274980902671814
1684108725735978800,10.880978759765625,0.03134438395500183,-0.01191516499966383,0.12516111135482788
1684108725745996800,10.890996826171875,0.03857486695051193,-0.07750429213047028,0.12360236793756485
1684108725756014800,10.901014892578125,0.043465688824653625,-0.12381497770547867,0.11806413531303406
1684108725766031600,10.911031494140625,0.02232525125145912,-0.07943712919950485,0.10141964256763458
1684108725776050000,10.9210498046875,-0.004036268685013056,0.040199071168899536,0.07213074713945389
1684108725786067700,10.931067626953125,-0.02426750399172306,0.13924522697925568,0.024575481191277504
1684108725796085800,10.941085693359375,-0.029839137569069862,0.11383557319641113,-0.04343532398343086
1684108725806102800,10.951102783203124,-0.018549464643001556,-0.027139123529195786,-0.11508927494287491
1684108725816120800,10.961120849609374,-0.0016734309028834105,-0.16798758506774902,-0.15048673748970032
1684108725826138600,10.971138671875,0.002600143663585186,-0.20759545266628265,-0.13472828269004822
1684108725836156000,10.981156005859376,-0.007614108268171549,-0.13129214942455292,-0.1133648157119751
1684108725846173700,10.991173583984375,-0.01663663238286972,-0.01963965967297554,-0.11200767010450363
1684108725856192000,11.00119189453125,-0.0174568984657526,0.05995165929198265,-0.1409228891134262
1684108725866209800,11.011209716796875,-0.005405826959758997,0.091590017080307,-0.1701478809118271
1684108725876226800,11.021226806640625,0.0064514558762311935,0.09442511945962906,-0.17689922451972961
1684108725886244900,11.031244873046875,0.009515156038105488,0.06748271733522415,-0.16863517463207245
1684108725896263000,11.041262939453125,0.007626675069332123,0.020509976893663406,-0.1737106889486313
1684108725906279700,11.05127978515625,0.00917264074087143,-0.034928515553474426,-0.1872163861989975
1684108725916297700,11.061297607421874,0.00627836212515831,-0.08926543593406677,-0.1848253756761551
1684108725926315800,11.071315673828124,0.0034591401927173138,-0.13151516020298004,-0.1772681325674057
1684108725936333800,11.081333740234374,0.0069961207918822765,-0.13989026844501495,-0.15739789605140686
1684108725946350800,11.091350830078126,0.0035068467259407043,-0.10703431069850922,-0.1373932957649231
1684108725956368600,11.10136865234375,0.006342359818518162,-0.06153491511940956,-0.1296221762895584
1684108725966386700,11.11138671875,0.007223599590361118,-0.02662700042128563,-0.1287238895893097
1684108725976403700,11.12140380859375,0.008274806663393974,-0.02554096281528473,-0.12316963076591492
1684108725986421800,11.131421875,0.00890997052192688,-0.054244514554739,-0.10409233719110489
1684108725996439800,11.141439697265625,0.008191937580704689,-0.09905388206243515,-0.08644811809062958
1684108726006456800,11.151456787109375,0.010991718620061874,-0.13281291723251343,-0.06946434080600739
1684108726016474600,11.161474609375,0.00740661658346653,-0.13192492723464966,-0.05590564012527466
1684108726026493000,11.171492919921874,0.007957357913255692,-0.1275525540113449,-0.04495339095592499
1684108726036510700,11.1815107421875,0.006332390941679478,-0.1397482305765152,-0.021127590909600258
1684108726046527700,11.19152783203125,-0.0020309998653829098,-0.1527242213487625,0.0066744782961905
1684108726056545800,11.2015458984375,-0.006370817311108112,-0.13277696073055267,0.03708077594637871
1684108726066563800,11.211563720703126,-0.013894514180719852,-0.0837329849600792,0.05886543169617653
1684108726076580900,11.221580810546875,-0.014746147207915783,-0.04629950597882271,0.04698428884148598
1684108726086599000,11.231598876953125,-0.0038913690950721502,-0.021142486482858658,0.026692066341638565
1684108726096616700,11.24161669921875,0.013171306811273098,0.040881384164094925,0.06011119857430458
1684108726106634800,11.251634765625,0.0267608854919672,0.13765853643417358,0.12573441863059998
1684108726116651800,11.26165185546875,0.02249227836728096,0.2251870334148407,0.17108529806137085
1684108726126669800,11.271669921875,-0.0034604936372488737,0.2794071137905121,0.18623895943164825
1684108726136687900,11.28168798828125,-0.03327343240380287,0.29443517327308655,0.16146263480186462
1684108726146704600,11.29170458984375,-0.044062431901693344,0.27129441499710083,0.12161082774400711
1684108726156722700,11.30172265625,-0.044674139469861984,0.20257271826267242,0.100035659968853
1684108726166741000,11.311740966796876,-0.026848802343010902,0.12255725264549255,0.11239033192396164
1684108726176757800,11.3217578125,-0.019613144919276237,0.09793206304311752,0.15006229281425476
1684108726186775800,11.33177587890625,-0.016792057082057,0.1266249716281891,0.18928000330924988
1684108726196793900,11.3417939453125,-0.008228720165789127,0.13768719136714935,0.19762982428073883
1684108726206812000,11.35181201171875,-0.00028051622211933136,0.0955437421798706,0.17590083181858063
1684108726216829000,11.361828857421875,0.008182093501091003,0.027761399745941162,0.1573798954486847
1684108726226846700,11.3718466796875,0.014088984578847885,-0.02790505811572075,0.15278246998786926
1684108726236864800,11.38186474609375,0.017282554879784584,-0.056346990168094635,0.1624142974615097
1684108726246881800,11.3918818359375,0.01600104197859764,-0.0743291899561882,0.16061319410800934
1684108726256899800,11.40189990234375,0.014885838143527508,-0.07933095842599869,0.15178869664669037
1684108726266917600,11.411917724609374,0.014458932913839817,-0.060347411781549454,0.1534888595342636
1684108726276936000,11.42193603515625,0.013938297517597675,-0.027475571259856224,0.15678127110004425
1684108726286952700,11.43195263671875,0.0129779614508152,0.002475137822329998,0.14215733110904694
1684108726296970800,11.441970703125,0.017082424834370613,0.02790699526667595,0.12286245822906494
1684108726306988800,11.45198876953125,0.02013440802693367,0.04748096317052841,0.0944257602095604
1684108726317005800,11.462005859375,0.0181729793548584,0.06211218610405922,0.06497044861316681
1684108726327023900,11.47202392578125,0.01684992015361786,0.07107611745595932,0.029554935172200203
1684108726337042000,11.4820419921875,0.02172100357711315,0.09158983081579208,0.012982362881302834
1684108726347058700,11.49205859375,0.0265948548913002,0.10308244079351425,0.019569693133234978
1684108726357077000,11.502076904296874,0.026448266580700874,0.10340415686368942,0.03976396843791008
1684108726367094800,11.5120947265625,0.02070542611181736,0.08315534144639969,0.06973198801279068
1684108726377112800,11.52211279296875,0.010279196314513683,0.03750618174672127,0.08059930056333542
1684108726387129900,11.5321298828125,-0.002248846460133791,-0.037851955741643906,0.07171393185853958
1684108726397148000,11.54214794921875,-0.026497473940253258,-0.12179576605558395,0.03559751808643341
1684108726407165700,11.552165771484376,-0.03828329220414162,-0.15948456525802612,-0.006727033294737339
1684108726417182700,11.5621826171875,-0.006592056713998318,-0.13489265739917755,-0.018737826496362686
1684108726427200800,11.57220068359375,0.053024400025606155,-0.07455102354288101,-0.0020813532173633575
1684108726437218800,11.58221875,0.09012149274349213,-0.035219863057136536,0.04560863971710205
1684108726447236900,11.59223681640625,0.07856550812721252,-0.04985792934894562,0.10598569363355637
1684108726457253600,11.602253662109375,0.04141770675778389,-0.08265973627567291,0.16934335231781006
1684108726467271700,11.612271728515625,0.021002180874347687,-0.09688927233219147,0.21378910541534424
1684108726477289700,11.622289794921874,0.03256174921989441,-0.10379528254270554,0.22974704205989838
1684108726487306800,11.632306640625,0.06247330829501152,-0.14773210883140564,0.16192032396793365
1684108726497324800,11.64232470703125,0.07246854156255722,-0.22041688859462738,0.042050737887620926
1684108726507342800,11.6523427734375,0.01856083795428276,-0.24015358090400696,-0.06755751371383667
1684108726517360600,11.662360595703126,-0.0371241420507431,-0.23231340944766998,-0.1559678018093109
1684108726527378000,11.6723779296875,-0.007248271722346544,-0.30732986330986023,-0.22091324627399445
1684108726537395700,11.682395751953125,0.06592513620853424,-0.4623408317565918,-0.20932941138744354
1684108726547413800,11.692413818359375,0.07853280752897263,-0.6334851384162903,-0.12284671515226364
1684108726557431000,11.70243115234375,0.025233935564756393,-0.7330948710441589,-0.044389065355062485
1684108726567448800,11.71244873046875,-0.04922698438167572,-0.5676100254058838,-0.00531330332159996
1684108726577467000,11.722466796875,-0.11205936968326569,-0.09194669872522354,-0.00528828427195549
1684108726587484000,11.73248388671875,-0.14251528680324554,0.4708689749240875,-0.013000532053411007
1684108726597502000,11.742501953125,-0.11023484170436859,0.7949570417404175,0.022802205756306648
1684108726607519700,11.752519775390626,-0.021310027688741684,0.7537073493003845,0.09501755237579346
1684108726617538000,11.7625380859375,0.06803511083126068,0.40815216302871704,0.19743700325489044
1684108726627554800,11.772554931640625,0.1091814786195755,0.01439074520021677,0.326263427734375
1684108726637573000,11.782572998046875,0.11011914163827896,-0.21519751846790314,0.4346980154514313
1684108726647591000,11.7925908203125,0.11199080944061279,-0.24282462894916534,0.4678093492984772
1684108726657608000,11.80260791015625,0.12243703007698059,-0.12111559510231018,0.4162629246711731
1684108726667626000,11.8126259765625,0.12003672122955322,0.06496106833219528,0.3320372402667999
1684108726677644000,11.82264404296875,0.09485378116369247,0.2022520750761032,0.27915850281715393
1684108726687661800,11.832661865234375,0.04327074810862541,0.22087077796459198,0.2690872251987457
1684108726697679000,11.84267919921875,0.014670170843601227,0.14461950957775116,0.30486276745796204
1684108726707697000,11.85269677734375,0.010453321039676666,0.017828000709414482,0.3619220554828644
1684108726717715000,11.86271484375,-0.012050192803144455,-0.11161565035581589,0.41062626242637634
1684108726727732000,11.87273193359375,-0.050491057336330414,-0.1810501217842102,0.4433138966560364
1684108726737750000,11.88275,-0.08179434388875961,-0.1649419069290161,0.4577799439430237
1684108726747767800,11.892767822265625,-0.08612677454948425,-0.07517632842063904,0.44140151143074036
1684108726757786000,11.9027861328125,-0.05837104097008705,0.031464092433452606,0.38822323083877563
1684108726767803000,11.912802978515625,-0.015570313669741154,0.10371431708335876,0.29692742228507996
1684108726777821200,11.9228212890625,0.011084211990237236,0.11887134611606598,0.1754419505596161
1684108726787839000,11.9328388671875,0.0032449308782815933,0.10953084379434586,0.07060102373361588
1684108726797855700,11.942855712890625,-0.030165281146764755,0.14596928656101227,0.011178744956851006
1684108726807874000,11.9528740234375,-0.0680234432220459,0.23379580676555634,0.013497292064130306
1684108726817891800,11.962891845703124,-0.08050106465816498,0.31923043727874756,0.08112456649541855
1684108726827909000,11.9729091796875,-0.061054397374391556,0.3340192437171936,0.15904414653778076
1684108726837927000,11.982927001953126,-0.03511902689933777,0.30987831950187683,0.18467943370342255
1684108726847945000,11.992945068359376,-0.033533647656440735,0.3047938048839569,0.16656966507434845
1684108726857962800,12.002962646484375,-0.05898516625165939,0.30913829803466797,0.12674318253993988
1684108726867980000,12.01297998046875,-0.0879417136311531,0.3055576980113983,0.08907967805862427
1684108726877997800,12.022997802734375,-0.0929446741938591,0.278347373008728,0.03317084535956383
1684108726888016000,12.033015869140625,-0.07391505688428879,0.23187361657619476,-0.036643389612436295
1684108726898033000,12.043032958984375,-0.06424733251333237,0.1763484925031662,-0.07761013507843018
1684108726908051000,12.053051025390625,-0.07371193915605545,0.11648274958133698,-0.09684508293867111
1684108726918069000,12.063069091796875,-0.0893479660153389,0.055075060576200485,-0.09311753511428833
1684108726928087000,12.073087158203125,-0.07821941375732422,-0.0002260114997625351,-0.07584879547357559
1684108726938103800,12.083103759765624,-0.050011321902275085,-0.03670111671090126,-0.06905938684940338
1684108726948122000,12.0931220703125,-0.02301991730928421,-0.0455918125808239,-0.07429276406764984
1684108726958140000,12.103139892578126,-0.031053956598043442,-0.003697717096656561,-0.07409369200468063
1684108726968157000,12.113156982421875,-0.049359194934368134,0.07223912328481674,-0.08865559101104736
1684108726978175000,12.123175048828125,-0.05860308185219765,0.1354157030582428,-0.10866602510213852
1684108726988193000,12.133193115234375,-0.05226689204573631,0.14891207218170166,-0.13135190308094025
1684108726998210000,12.1432099609375,-0.038499750196933746,0.11022467911243439,-0.16127082705497742
1684108727008228000,12.15322802734375,-0.024580739438533783,0.054066333919763565,-0.19446232914924622
1684108727018246000,12.163245849609375,-0.023553799837827682,0.01733238250017166,-0.23215602338314056
1684108727028264000,12.173263916015625,-0.011255055665969849,0.013814614154398441,-0.24449898302555084
1684108727038281000,12.183281005859374,0.007118105422705412,0.03578081354498863,-0.2167789787054062
1684108727048298800,12.193298828125,0.017266880720853806,0.06308992952108383,-0.17966648936271667
1684108727058317000,12.203317138671874,0.017424385994672775,0.10262641310691833,-0.17175829410552979
1684108727068335000,12.213335205078126,-0.002000443171709776,0.16484850645065308,-0.19540822505950928
1684108727078352000,12.223351806640625,-0.024344099685549736,0.25954678654670715,-0.2425065040588379
1684108727088370000,12.233369873046875,-0.02695026807487011,0.3766334652900696,-0.2828022837638855
1684108727098388000,12.243387939453125,-0.022796349599957466,0.4685864746570587,-0.255307674407959
1684108727108405000,12.253405029296875,-0.010014776140451431,0.463972806930542,-0.1707693487405777
1684108727118423000,12.263423095703125,0.011641577817499638,0.3886624574661255,-0.08435080200433731
1684108727128440800,12.27344091796875,0.023577600717544556,0.34302598237991333,-0.042195092886686325
1684108727138458000,12.2834580078125,0.025834232568740845,0.33478933572769165,-0.06563965231180191
1684108727148476000,12.293475830078124,0.03651830181479454,0.29531410336494446,-0.1374957263469696
1684108727158494000,12.303493896484374,0.04962143674492836,0.20094099640846252,-0.20739765465259552
1684108727168511700,12.31351171875,0.05268353968858719,0.08870154619216919,-0.23137009143829346
1684108727178529000,12.323529052734376,0.049116477370262146,-0.024987464770674706,-0.21531933546066284
1684108727188546800,12.333546875,0.036477647721767426,-0.11866575479507446,-0.1610342562198639
1684108727198565000,12.343565185546876,0.01173959206789732,-0.13794001936912537,-0.09811732918024063
1684108727208582000,12.353581787109375,-0.01028341893106699,-0.08468107134103775,-0.054620444774627686
1684108727218600000,12.363599853515625,-0.03125859051942825,-0.0021459762938320637,-0.044231921434402466
