time,seconds_elapsed,z,y,x
1684108616865343000,0.029343017578125,-0.1341514140367508,-0.2775427997112274,2.8149335384368896
1684108616875360000,0.039360107421875,-0.13165442645549774,0.006188245490193367,3.107567548751831
1684108616885378000,0.0493779296875,-0.0271772351115942,0.5878375768661499,3.282977819442749
1684108616895396600,0.059396728515625,0.21596111357212067,0.8610168695449829,3.50273060798645
1684108616905413600,0.06941357421875,0.5729038715362549,0.9365500807762146,3.594292640686035
1684108616915431700,0.079431640625,0.886424720287323,1.3394911289215088,3.3321430683135986
1684108616925449700,0.08944970703125,1.0417662858963013,2.0731022357940674,2.7413432598114014
1684108616935466800,0.099466796875,0.8375837802886963,2.698784351348877,2.1197564601898193
1684108616945484500,0.109484619140625,0.34827885031700134,2.633289098739624,1.6865646839141846
1684108616955502800,0.1195029296875,-0.0963638573884964,1.9187382459640503,1.3886374235153198
1684108616965519600,0.12951953125,-0.4455731213092804,0.806797206401825,1.1344013214111328
1684108616975537700,0.13953759765625,-0.6930806636810303,-0.4196488857269287,0.8090229034423828
1684108616985555700,0.1495556640625,-0.6573367714881897,-2.140428304672241,0.2768065929412842
1684108616995572700,0.15957275390625,-0.4688076376914978,-2.2540106773376465,-0.27876341342926025
1684108617005590800,0.1695908203125,-0.5364787578582764,-1.882805585861206,-0.6058948636054993
1684108617015608800,0.17960888671875,-0.7257922291755676,-1.0174306631088257,-0.8162606358528137
1684108617025625600,0.18962548828125,-0.815575897693634,0.0035843830555677414,-1.0163166522979736
1684108617035644000,0.199643798828125,-0.7970640063285828,0.644425094127655,-1.1970754861831665
1684108617045660700,0.20966064453125,-0.6654988527297974,0.8423492908477783,-1.3906155824661255
1684108617055678700,0.2196787109375,-0.4014959931373596,1.0251246690750122,-1.7031580209732056
1684108617065696800,0.22969677734375,-0.25205090641975403,1.0702979564666748,-2.05020809173584
1684108617075713500,0.239713623046875,-0.30032309889793396,0.5437630414962769,-2.3243649005889893
1684108617085731800,0.24973193359375,-0.4141911268234253,0.016972452402114868,-2.5276565551757812
1684108617095749600,0.25974951171875,-0.4917050898075104,-0.43853169679641724,-2.58354115486145
1684108617105766700,0.2697666015625,-0.6343344449996948,-0.8345603346824646,-2.4650719165802
1684108617115784700,0.27978466796875,-0.7950416207313538,-0.876976490020752,-2.1585536003112793
1684108617125802800,0.289802734375,-0.8508418202400208,-0.2634953558444977,-1.7201787233352661
1684108617135819800,0.29981982421875,-0.6900255084037781,0.9946051239967346,-1.180265188217163
1684108617145837800,0.309837890625,-0.2621693015098572,2.3156378269195557,-0.6190192699432373
1684108617155855600,0.319855712890625,0.429669588804245,3.325681686401367,-0.20388169586658478
1684108617165873000,0.329872802734375,0.4827798306941986,4.087677478790283,-0.09371563047170639
1684108617175890700,0.339890625,-0.23926705121994019,4.606285572052002,-0.15411213040351868
1684108617185908700,0.34990869140625,-0.49315324425697327,4.650511264801025,-0.13086776435375214
1684108617195925800,0.35992578125,-0.6854771375656128,4.45620059967041,0.0784100890159607
1684108617205943800,0.36994384765625,-0.8556870818138123,4.563080310821533,0.35458651185035706
1684108617215961600,0.379961669921875,-0.9458862543106079,4.7571916580200195,0.45404839515686035
1684108617225978600,0.389978515625,-1.0414472818374634,4.932133674621582,0.24587512016296387
1684108617235996700,0.39999658203125,-1.168563723564148,5.142221450805664,-0.1475115865468979
1684108617246014700,0.4100146484375,-1.4731521606445312,5.479247093200684,-0.4091014266014099
1684108617256031700,0.42003173828125,-1.8979051113128662,6.042471885681152,-0.37660151720046997
1684108617266049500,0.430049560546875,-2.3771426677703857,6.806399822235107,-0.0740477591753006
1684108617276067800,0.44006787109375,-2.946255922317505,7.660524845123291,0.43137574195861816
1684108617286084600,0.450084716796875,-3.5861220359802246,8.447500228881836,1.1548207998275757
1684108617296102700,0.4601025390625,-4.359477996826172,8.99179744720459,2.0906167030334473
1684108617306120700,0.47012060546875,-5.293082237243652,9.339792251586914,3.1660115718841553
1684108617316137700,0.4801376953125,-6.317824840545654,9.414947509765625,4.200921535491943
1684108617326155800,0.49015576171875,-7.4858198165893555,8.676312446594238,4.780781269073486
1684108617336173800,0.500173828125,-8.753324508666992,7.400069236755371,4.868255138397217
1684108617346190600,0.510190673828125,-9.759182929992676,6.021213054656982,4.693711280822754
1684108617356209000,0.520208984375,-9.8778715133667,4.858980178833008,4.487663269042969
1684108617366226700,0.530226806640625,-8.962425231933594,4.130930423736572,4.390172481536865
1684108617376243700,0.54024365234375,-7.074941635131836,3.810234546661377,4.530306339263916
1684108617386261800,0.55026171875,-4.724919319152832,3.5900471210479736,5.077217102050781
1684108617396279800,0.56027978515625,-2.8296592235565186,3.3101096153259277,5.708818435668945
1684108617406296800,0.570296875,-1.8565934896469116,2.8382248878479004,5.929688930511475
1684108617416314600,0.580314697265625,-1.464354157447815,2.1177690029144287,5.700198173522949
1684108617426332700,0.590332763671875,-1.2212575674057007,0.9909125566482544,5.168764591217041
1684108617436349700,0.600349609375,-0.9366936683654785,-0.38069766759872437,4.514387607574463
1684108617446367700,0.61036767578125,-0.5442205667495728,-1.5299944877624512,3.9321794509887695
1684108617456385500,0.620385498046875,0.011212299577891827,-2.246433734893799,3.645876169204712
1684108617466402800,0.63040283203125,0.7124094367027283,-2.4357309341430664,3.768219470977783
1684108617476420600,0.640420654296875,1.4402929544448853,-1.907127022743225,3.4226064682006836
1684108617486438700,0.650438720703125,2.2959654331207275,3.4752249717712402,-1.7238327264785767
1684108617496455700,0.66045556640625,2.364945411682129,3.3408660888671875,-5.23456335067749
1684108617506473700,0.6704736328125,1.3789385557174683,1.401546597480774,-5.1363348960876465
1684108617516491800,0.68049169921875,0.26768800616264343,-0.9832445979118347,-4.024936199188232
1684108617526508800,0.6905087890625,-0.017570381984114647,-1.8963381052017212,-2.7313435077667236
1684108617536526600,0.700526611328125,0.7787454128265381,-1.0972096920013428,-1.380674123764038
1684108617546545000,0.710544921875,2.2386999130249023,0.3917385935783386,-0.045490968972444534
1684108617556561700,0.720561767578125,2.687952756881714,1.1480523347854614,0.9994170665740967
1684108617566579700,0.730579833984375,2.3182597160339355,0.8345906138420105,1.5211817026138306
1684108617576597800,0.74059765625,2.202448844909668,0.7974467277526855,1.6570748090744019
1684108617586614500,0.750614501953125,2.612673044204712,1.1039713621139526,1.6638025045394897
1684108617596632800,0.7606328125,2.819516658782959,1.2525134086608887,1.5294053554534912
1684108617606649600,0.770649658203125,2.4840939044952393,1.1463878154754639,1.141077995300293
1684108617616667600,0.780667724609375,2.153132200241089,0.3907030522823334,0.615369439125061
1684108617626685700,0.790685791015625,2.0736613273620605,-0.5293818712234497,-0.06073586270213127
1684108617636702700,0.80070263671875,2.096430778503418,-1.581736445426941,-0.8689024448394775
1684108617646720800,0.810720703125,1.9064464569091797,-2.527294874191284,-1.5476924180984497
1684108617656738800,0.82073876953125,1.3677462339401245,-3.031522035598755,-1.7767618894577026
1684108617666755600,0.830755615234375,0.9118570685386658,-2.9195845127105713,-1.7713704109191895
1684108617676774000,0.84077392578125,0.44121071696281433,-2.3959500789642334,-1.579292893409729
1684108617686791700,0.850791748046875,0.4656004011631012,-1.3607299327850342,-1.2120144367218018
1684108617696808700,0.86080859375,0.9616261124610901,-0.7450269460678101,-0.9733872413635254
1684108617706826800,0.87082666015625,0.9958290457725525,-0.5016558766365051,-0.9312622547149658
1684108617716844800,0.8808447265625,1.41775643825531,-0.84169602394104,-0.6139463186264038
1684108617726861800,0.89086181640625,1.1608625650405884,-1.5461580753326416,-0.4979349672794342
1684108617736879900,0.9008798828125,0.9795294404029846,-2.3525404930114746,-1.266749620437622
1684108617746897700,0.910897705078125,0.4976852834224701,-4.5698370933532715,-2.2973275184631348
1684108617756914700,0.920914794921875,-0.6431577801704407,-5.2174787521362305,-2.3435754776000977
1684108617766932700,0.9309326171875,-1.5605287551879883,-4.245118141174316,-1.2739555835723877
1684108617776950500,0.940950439453125,-2.098452568054199,-2.364656925201416,0.46320784091949463
1684108617786967800,0.9509677734375,-1.961248517036438,-0.033664267510175705,2.2076666355133057
1684108617796985600,0.960985595703125,-1.7485897541046143,1.036123514175415,2.6854770183563232
1684108617807003600,0.971003662109375,-1.4499953985214233,0.9945409297943115,2.738715887069702
1684108617817020700,0.981020751953125,-0.9195770621299744,0.05897245556116104,3.1635677814483643
1684108617827038700,0.991038818359375,-0.366276353597641,-0.8498074412345886,4.0852813720703125
1684108617837056500,1.001056396484375,0.46576547622680664,-0.08857297152280807,4.778955936431885
1684108617847073800,1.01107373046875,0.8773648738861084,0.9995392560958862,5.098639011383057
1684108617857091600,1.021091552734375,-0.07949348539113998,2.0053341388702393,5.1144609451293945
1684108617867110000,1.03110986328125,-0.7496562004089355,1.8006482124328613,5.11296272277832
1684108617877126700,1.041126708984375,-0.4401009976863861,2.2950525283813477,4.921375751495361
1684108617887144700,1.051144775390625,0.09680910408496857,3.7463748455047607,4.15985107421875
1684108617897162800,1.061162841796875,0.37551558017730713,5.101665019989014,3.014413356781006
1684108617907179500,1.071179443359375,0.44943341612815857,5.4181013107299805,1.6280462741851807
1684108617917197800,1.08119775390625,0.44172677397727966,3.7003817558288574,0.814503014087677
1684108617927215600,1.091215576171875,0.9284501075744629,1.50298011302948,0.16791336238384247
1684108617937232600,1.101232666015625,1.2484298944473267,0.8794904947280884,-0.5866496562957764
1684108617947250700,1.111250732421875,1.0537643432617188,0.968072235584259,-0.9348699450492859
1684108617957268700,1.121268798828125,0.7756624221801758,0.7606423497200012,-0.8497971296310425
1684108617967285800,1.13128564453125,0.6724932789802551,0.3885676860809326,-0.6778748631477356
1684108617977303800,1.1413037109375,0.5908812284469604,0.3219763934612274,-0.44490310549736023
1684108617987321600,1.151321533203125,0.42712271213531494,0.6328653693199158,-0.15803682804107666
1684108617997338600,1.161338623046875,0.38388174772262573,0.9784691333770752,0.08374118059873581
1684108618007356700,1.171356689453125,0.49270516633987427,1.2608256340026855,0.3151199519634247
1684108618017374500,1.18137451171875,0.5580196976661682,1.7717899084091187,0.5503348708152771
1684108618027391700,1.191391845703125,0.2818073630332947,2.4785656929016113,0.7321720123291016
1684108618037409500,1.201409423828125,-0.1499994546175003,2.577799081802368,0.9448270201683044
1684108618047427600,1.211427490234375,-0.13617780804634094,1.9280354976654053,1.2100812196731567
1684108618057444600,1.221444580078125,-0.12722186744213104,1.3666437864303589,1.5166577100753784
1684108618067462700,1.231462646484375,-0.20095676183700562,1.232899785041809,1.637978434562683
1684108618077480400,1.24148046875,-0.20563407242298126,1.1670118570327759,1.4599552154541016
1684108618087497700,1.251497802734375,-0.25861555337905884,0.984527051448822,1.1411488056182861
1684108618097515500,1.261515625,-0.4361935257911682,0.7032671570777893,0.8068398237228394
1684108618107533600,1.271533447265625,-0.6259194016456604,0.43079838156700134,0.467070072889328
1684108618117550600,1.281550537109375,-1.1715142726898193,0.33247262239456177,0.34552767872810364
1684108618127568600,1.291568603515625,-2.0267128944396973,0.2969980537891388,0.18329906463623047
1684108618137586700,1.301586669921875,-1.641935110092163,-0.22317668795585632,0.5237834453582764
1684108618147603700,1.311603759765625,-1.1768242120742798,-0.19278156757354736,1.48051118850708
1684108618157621500,1.32162158203125,-0.8558483719825745,0.18398141860961914,1.9805526733398438
1684108618167639800,1.331639892578125,-0.3254110515117645,0.45305106043815613,2.1945343017578125
1684108618177656600,1.341656494140625,0.1997384876012802,0.5942193865776062,2.2287497520446777
1684108618187674600,1.351674560546875,0.12442025542259216,0.8089877367019653,2.2596840858459473
1684108618197692700,1.361692626953125,-0.19669999182224274,0.9729703664779663,2.2210075855255127
1684108618207709400,1.37170947265625,-0.4527830481529236,0.8958892822265625,2.0684566497802734
1684108618217727700,1.381727783203125,-0.8150203824043274,1.130520224571228,2.157745838165283
1684108618227745500,1.39174560546875,-1.1200252771377563,2.1723015308380127,3.038029193878174
1684108618237762800,1.4017626953125,-1.5435882806777954,2.4195597171783447,3.7805628776550293
1684108618247780600,1.411780517578125,-2.1358542442321777,2.426027774810791,4.310905456542969
1684108618257798700,1.421798583984375,-2.6683974266052246,2.5219078063964844,4.580503940582275
1684108618267815700,1.431815673828125,-3.0268445014953613,2.8017141819000244,4.5851593017578125
1684108618277833700,1.441833740234375,-3.559476137161255,3.6454524993896484,4.516607284545898
1684108618287851500,1.4518515625,-3.6577327251434326,4.026770114898682,3.8930201530456543
1684108618297868800,1.461868896484375,-3.830728530883789,3.8741157054901123,2.495266914367676
1684108618307886600,1.471886474609375,-4.188947677612305,3.0911898612976074,1.040598750114441
1684108618317904600,1.481904541015625,-4.332615852355957,1.8855462074279785,-0.10945618152618408
1684108618327921700,1.491921630859375,-4.205038070678711,0.8014410734176636,-1.0785834789276123
1684108618337939700,1.501939697265625,-3.8527987003326416,-0.0004433821886777878,-1.6677700281143188
1684108618347957500,1.51195751953125,-3.3869011402130127,-0.2566472887992859,-1.6365890502929688
1684108618357974500,1.521974609375,-3.234581708908081,-0.008621768094599247,-1.3200713396072388
1684108618367992600,1.53199267578125,-3.5973074436187744,0.6636680364608765,-0.6269022822380066
1684108618378010600,1.5420107421875,-4.877932548522949,1.6545716524124146,0.702803373336792
1684108618388027600,1.552027587890625,-5.302337646484375,2.109593629837036,1.3665574789047241
1684108618398045400,1.56204541015625,-5.399306297302246,1.976571798324585,1.4901471138000488
1684108618408063700,1.572063720703125,-5.392866134643555,1.5771890878677368,1.7839535474777222
1684108618418080500,1.58208056640625,-5.422729969024658,1.430705189704895,2.275580644607544
1684108618428098600,1.5920986328125,-5.5035271644592285,2.2210209369659424,2.7256829738616943
1684108618438116600,1.60211669921875,-5.046618938446045,3.0089123249053955,2.792954921722412
1684108618448133600,1.612133544921875,-4.5906524658203125,2.963859796524048,2.5961532592773438
1684108618458151700,1.622151611328125,-3.929591655731201,1.783503532409668,2.478231191635132
1684108618468169700,1.632169677734375,-2.988910675048828,1.875051498413086,2.351799964904785
1684108618478186500,1.6421865234375,-2.300628900527954,2.726869583129883,2.4188177585601807
1684108618488204800,1.652204833984375,-2.1245932579040527,2.6092448234558105,2.4846668243408203
1684108618498222600,1.66222265625,-2.046887159347534,1.6595313549041748,2.2228403091430664
1684108618508240000,1.672239990234375,-1.980327844619751,0.5165600776672363,1.856062412261963
1684108618518257700,1.682257568359375,-1.9716942310333252,-0.1731528341770172,1.5318920612335205
1684108618528275700,1.692275634765625,-1.8991858959197998,-0.47872084379196167,1.3936535120010376
1684108618538292700,1.702292724609375,-1.7024177312850952,-0.47024184465408325,1.3445408344268799
1684108618548310500,1.712310546875,-1.351893663406372,-0.4276627004146576,1.2770761251449585
1684108618558328600,1.72232861328125,-0.9030250906944275,-0.12952661514282227,1.1856812238693237
1684108618568345600,1.732345703125,-0.5260326266288757,-0.1306881159543991,1.1075959205627441
1684108618578363600,1.74236376953125,-0.14902862906455994,-1.415578842163086,1.1451443433761597
1684108618588381400,1.75238134765625,0.41912612318992615,-2.6705527305603027,1.6711841821670532
1684108618598398700,1.762398681640625,0.7735041379928589,-3.7687747478485107,2.0763049125671387
1684108618608416500,1.77241650390625,1.436488389968872,-4.87200927734375,2.1757395267486572
1684108618618434600,1.7824345703125,2.212632417678833,-5.716098308563232,2.105682611465454
1684108618628451600,1.79245166015625,2.7186264991760254,-6.278625965118408,1.796713948249817
1684108618638469600,1.8024697265625,2.834568500518799,-6.476404666900635,1.3791816234588623
1684108618648487700,1.81248779296875,2.4442780017852783,-5.673848628997803,0.803154706954956
1684108618658504700,1.822504638671875,1.5442399978637695,-3.774817943572998,0.17224839329719543
1684108618668522500,1.8325224609375,0.6753050684928894,-1.4884021282196045,-0.4429912865161896
1684108618678540800,1.842540771484375,0.10515561699867249,0.7374007105827332,-0.9882263541221619
1684108618688557600,1.8525576171875,-0.19697077572345734,2.520364761352539,-1.3099310398101807
1684108618698575600,1.86257568359375,-0.10487040877342224,3.6895487308502197,-1.4718719720840454
1684108618708593700,1.87259375,0.27753767371177673,4.222311496734619,-1.5752146244049072
1684108618718610400,1.8826103515625,0.7986730337142944,3.5621678829193115,-1.5959800481796265
1684108618728628700,1.892628662109375,1.3127115964889526,2.409437417984009,-1.6634299755096436
1684108618738646800,1.902646728515625,1.6360771656036377,1.1403027772903442,-1.542130708694458
1684108618748663600,1.91266357421875,1.6778476238250732,0.18922074139118195,-1.0273557901382446
1684108618758681600,1.922681640625,1.543018102645874,-0.172716423869133,-0.1885783076286316
1684108618768699600,1.93269970703125,1.5303363800048828,-0.22463279962539673,0.5231192708015442
1684108618778716700,1.942716552734375,1.8357659578323364,0.026625528931617737,0.9783392548561096
1684108618788734700,1.952734619140625,2.11274790763855,0.7167330980300903,1.4332696199417114
1684108618798752500,1.96275244140625,2.2367515563964844,1.5702074766159058,2.0209319591522217
1684108618808769800,1.972769775390625,2.52774977684021,2.242225170135498,2.6477274894714355
1684108618818787600,1.98278759765625,3.024555206298828,2.5942318439483643,3.084455966949463
1684108618828805600,1.9928056640625,3.3798677921295166,2.243582010269165,3.3256468772888184
1684108618838822700,2.00282275390625,3.554293632507324,1.381345510482788,3.3131937980651855
1684108618848840700,2.0128408203125,3.3690555095672607,0.908257246017456,2.569300413131714
1684108618858858500,2.0228583984375,2.806039810180664,0.20343466103076935,1.502968430519104
1684108618868875800,2.032875732421875,2.532376289367676,-0.9476671814918518,0.15249261260032654
1684108618878893600,2.0428935546875,2.891557455062866,-2.2845118045806885,-1.1701991558074951
1684108618888911600,2.05291162109375,3.664613962173462,-4.453878402709961,-2.1196742057800293
1684108618898928000,2.06292822265625,4.275010585784912,-7.090770244598389,-3.289640188217163
1684108618908946200,2.0729462890625,4.1031084060668945,-9.597427368164062,-4.477008819580078
1684108618918964200,2.082964111328125,3.4854037761688232,-11.647517204284668,-5.406070232391357
1684108618928981200,2.092981201171875,2.1893718242645264,-11.924033164978027,-5.855461597442627
1684108618938999300,2.102999267578125,-0.15442326664924622,-10.025076866149902,-5.991137981414795
1684108618949017300,2.113017333984375,-2.4845707416534424,-6.789773941040039,-5.67582368850708
1684108618959034000,2.1230341796875,-2.9994490146636963,-0.21436525881290436,-5.424384593963623
1684108618969052400,2.133052490234375,-2.2894842624664307,3.093566656112671,-5.5152387619018555
1684108618979070200,2.1430703125,-2.517580986022949,4.78095006942749,-4.896055698394775
1684108618989087200,2.153087158203125,-3.167850971221924,6.159295558929443,-3.7749881744384766
1684108618999105300,2.163105224609375,-4.206110000610352,6.382663249969482,-2.5754263401031494
1684108619009123300,2.173123291015625,-5.246508598327637,5.543012619018555,-1.522589087486267
1684108619019140400,2.183140380859375,-5.949077606201172,4.521983623504639,-0.8602257966995239
1684108619029158400,2.193158447265625,-6.122072696685791,3.5716981887817383,-0.3755640983581543
1684108619039176200,2.20317626953125,-5.610443115234375,2.743591785430908,0.015141330659389496
1684108619049193200,2.213193115234375,-4.567122459411621,2.516096353530884,0.23523163795471191
1684108619059211300,2.223211181640625,-3.0698437690734863,2.172482490539551,0.04143368452787399
1684108619069229300,2.233229248046875,-1.2167121171951294,1.951410174369812,-0.48654186725616455
1684108619079246300,2.243246337890625,0.420146107673645,2.2645132541656494,-1.045248031616211
1684108619089264000,2.25326416015625,1.5139209032058716,2.827420711517334,-1.346353530883789
1684108619099282200,2.2632822265625,2.235663414001465,3.7862792015075684,-1.648080587387085
1684108619109299200,2.27329931640625,2.6268608570098877,5.110733509063721,-1.7746938467025757
1684108619119317200,2.283317138671875,2.5292441844940186,5.418216705322266,-1.674915075302124
1684108619129335000,2.2933349609375,2.516606092453003,4.375865459442139,-1.6403071880340576
1684108619139352300,2.303352294921875,2.596195697784424,2.654851198196411,-1.4462206363677979
1684108619149370000,2.3133701171875,2.3468902111053467,0.11073765158653259,-0.46606341004371643
1684108619159388400,2.323388427734375,1.8518611192703247,-2.1405584812164307,0.3783631920814514
1684108619169405200,2.3334052734375,1.3183218240737915,-3.578146457672119,0.8037978410720825
1684108619179423200,2.34342333984375,0.8547637462615967,-4.3410964012146,0.9255934953689575
1684108619189441300,2.353441162109375,0.5417948365211487,-4.629059314727783,0.8718274831771851
1684108619199458300,2.363458251953125,0.3168450891971588,-4.3006367683410645,0.8770691156387329
1684108619209476400,2.373476318359375,0.19797977805137634,-3.6476526260375977,0.8850557804107666
1684108619219494400,2.383494384765625,-0.2500848174095154,-2.847926616668701,1.084946870803833
1684108619229511200,2.39351123046875,-0.9185215830802917,-1.5772476196289062,1.3212729692459106
1684108619239529500,2.403529541015625,-1.9409615993499756,0.3982626497745514,1.78508722782135
1684108619249547300,2.41354736328125,-2.933182954788208,1.9656872749328613,2.101450204849243
1684108619259564300,2.423564208984375,-3.0004208087921143,1.6830334663391113,1.9068816900253296
1684108619269582300,2.433582275390625,-2.6936728954315186,0.9728754758834839,1.7740228176116943
1684108619279600000,2.44360009765625,-2.3901796340942383,0.5817378163337708,1.8495210409164429
1684108619289617400,2.453617431640625,-2.091527223587036,0.4342978000640869,2.0196144580841064
1684108619299635200,2.46363525390625,-1.517109990119934,0.6601503491401672,1.8347843885421753
1684108619309653200,2.4736533203125,-1.0741231441497803,0.9241669774055481,1.6616339683532715
1684108619319670300,2.483670166015625,-0.7858551740646362,0.8737202882766724,1.8668720722198486
1684108619329688300,2.493688232421875,-0.47146129608154297,0.8668617010116577,1.8827333450317383
1684108619339706000,2.5037060546875,-0.1408839225769043,0.8490427732467651,1.4220002889633179
1684108619349723400,2.513723388671875,0.19158804416656494,0.6204308271408081,1.31910240650177
1684108619359741200,2.5237412109375,0.390252947807312,0.23607727885246277,1.3844680786132812
1684108619369759200,2.53375927734375,0.3546667695045471,-0.40945813059806824,1.3357614278793335
1684108619379776300,2.5437763671875,0.09796120971441269,-1.2351621389389038,1.402209997177124
1684108619389794300,2.553794189453125,-0.2854003310203552,-2.1163394451141357,1.731279730796814
1684108619399812000,2.56381201171875,-0.5512074828147888,-3.1258723735809326,2.0562453269958496
1684108619409829000,2.5738291015625,-0.5346320867538452,-4.365664482116699,2.1448166370391846
1684108619419847200,2.58384716796875,-0.30867671966552734,-5.143755912780762,2.1465141773223877
1684108619429865500,2.593865478515625,0.3446054458618164,-5.979935646057129,1.724930763244629
1684108619439882200,2.60388232421875,1.4726866483688354,-7.224301338195801,-0.18298357725143433
1684108619449900000,2.613900146484375,2.2971065044403076,-7.023928642272949,-2.0228281021118164
1684108619459918300,2.62391845703125,2.6663622856140137,-5.56830358505249,-3.2556445598602295
1684108619469935000,2.63393505859375,2.7211790084838867,-3.801584243774414,-3.8571555614471436
1684108619479953400,2.643953369140625,2.583540916442871,-2.4854602813720703,-3.987637758255005
1684108619489971200,2.65397119140625,2.3125884532928467,-1.690718173980713,-3.8635411262512207
1684108619499988200,2.66398828125,1.901989221572876,-1.1349619626998901,-3.702181100845337
1684108619510006300,2.67400634765625,1.3709458112716675,-0.6281641125679016,-3.6462790966033936
1684108619520024300,2.6840244140625,0.8149886727333069,-0.17480699717998505,-3.668591260910034
1684108619530041300,2.694041259765625,0.3475107252597809,-0.3026413917541504,-3.564049005508423
1684108619540059400,2.704059326171875,0.022038869559764862,-2.1403985023498535,-2.6409099102020264
1684108619550077200,2.7140771484375,-0.04700188711285591,-2.833322763442993,-1.207007884979248
1684108619560094500,2.724094482421875,-0.07589079439640045,-2.0230023860931396,-0.001082380535081029
1684108619570112300,2.7341123046875,-0.18507985770702362,-0.6340125799179077,0.8741284608840942
1684108619580130300,2.74413037109375,-0.32807719707489014,0.7533408999443054,1.3536604642868042
1684108619590147300,2.754147216796875,-0.43442216515541077,1.825152039527893,1.521402359008789
1684108619600165400,2.764165283203125,-0.47164809703826904,2.4757590293884277,1.5196236371994019
1684108619610183200,2.77418310546875,-0.4641698896884918,2.743046998977661,1.4884752035140991
1684108619620200200,2.7842001953125,-0.4264816343784332,2.689978837966919,1.4807040691375732
1684108619630218200,2.79421826171875,-0.3792601227760315,2.4322991371154785,1.5221595764160156
1684108619640236000,2.804236083984375,-0.3571087419986725,2.0921099185943604,1.6121443510055542
1684108619650253300,2.81425341796875,-0.36080747842788696,1.7370387315750122,1.684205412864685
1684108619660271000,2.82427099609375,-0.39868590235710144,1.4857923984527588,1.7090446949005127
1684108619670289200,2.8342890625,-0.44125500321388245,1.3784366846084595,1.6176177263259888
1684108619680306200,2.84430615234375,-0.44906872510910034,1.3089483976364136,1.362054705619812
1684108619690324200,2.85432421875,-0.3933420479297638,1.2731943130493164,1.0205329656600952
1684108619700342300,2.86434228515625,-0.30549925565719604,1.2516570091247559,0.6960138082504272
1684108619710360300,2.8743603515625,-0.20684224367141724,1.1729795932769775,0.44969427585601807
1684108619720377000,2.884377197265625,-0.12225306034088135,0.9856283664703369,0.29562029242515564
1684108619730395400,2.8943955078125,-0.04810653626918793,0.6848141551017761,0.2262963056564331
1684108619740413200,2.9044130859375,0.011116040870547295,0.3203382194042206,0.18409478664398193
1684108619750430500,2.914430419921875,0.06538571417331696,-0.04559708386659622,0.16674856841564178
1684108619760448300,2.9244482421875,0.09242239594459534,-0.3227328062057495,0.13670597970485687
1684108619770466300,2.93446630859375,0.07555311918258667,-0.400835782289505,0.008915846236050129
1684108619780483300,2.9444833984375,-0.013761576265096664,-0.26693764328956604,-0.24776440858840942
1684108619790501400,2.95450146484375,-0.10572118312120438,-0.002864360809326172,-0.5135126113891602
1684108619800519200,2.964519287109375,-0.14512106776237488,0.20008502900600433,-0.6306362748146057
1684108619810536200,2.9745361328125,-0.1167064979672432,0.2673008143901825,-0.5994763970375061
1684108619820554200,2.98455419921875,-0.0705009177327156,0.22731716930866241,-0.4630357325077057
1684108619830572300,2.994572265625,-0.038050759583711624,0.10436266660690308,-0.2492137998342514
1684108619840589300,3.00458935546875,-0.01823204942047596,-0.046330440789461136,0.0729549303650856
1684108619850607000,3.014607177734375,0.0025280648842453957,-0.1035095676779747,0.5086337924003601
1684108619860625200,3.024625244140625,-0.010136065073311329,-0.07566168904304504,0.9742183089256287
1684108619870642200,3.03464208984375,-0.10259325802326202,0.023977991193532944,1.2964366674423218
1684108619880660200,3.04466015625,-0.21942080557346344,0.21109728515148163,1.2067078351974487
1684108619890678300,3.05467822265625,-0.248335599899292,0.4918087422847748,0.6161670088768005
1684108619900695000,3.064695068359375,-0.13194639980793,0.7666251063346863,-0.2131517380475998
1684108619910713000,3.074713134765625,0.0767580047249794,0.8313037753105164,-0.9541112780570984
1684108619920731100,3.084731201171875,0.2792200446128845,0.6734835505485535,-1.4832829236984253
1684108619930748200,3.094748046875,0.4187844395637512,0.3488433361053467,-1.709787130355835
1684108619940766200,3.10476611328125,0.5051606297492981,-0.034888073801994324,-1.6394811868667603
1684108619950784300,3.1147841796875,0.5141566395759583,-0.37975189089775085,-1.3635610342025757
1684108619960801000,3.124801025390625,0.4617246091365814,-0.6327450275421143,-0.9419975876808167
1684108619970819300,3.1348193359375,0.38167238235473633,-0.8091544508934021,-0.42454299330711365
1684108619980837000,3.144837158203125,0.2675758898258209,-0.938585102558136,0.11964228004217148
1684108619990854100,3.154854248046875,0.13680468499660492,-1.0588232278823853,0.6728558540344238
1684108620000872200,3.1648720703125,0.04345237836241722,-1.1665035486221313,1.2261961698532104
1684108620010890200,3.17489013671875,0.028379715979099274,-1.2159669399261475,1.753241777420044
1684108620020907300,3.1849072265625,0.07960376143455505,-1.1978734731674194,2.2103419303894043
1684108620030925000,3.194925048828125,0.12631270289421082,-1.0787497758865356,2.5415384769439697
1684108620040943000,3.204943115234375,0.09752127528190613,-0.8198251128196716,2.703669548034668
1684108620050960100,3.214960205078125,-0.34276703000068665,1.3347618579864502,1.813467264175415
1684108620060978200,3.224978271484375,-0.9582198262214661,4.352881908416748,0.3202725052833557
1684108620070996000,3.234995849609375,-1.1316941976547241,5.663584232330322,-0.4337327778339386
1684108620081013200,3.24501318359375,-0.9809238910675049,5.8115739822387695,-0.6908340454101562
1684108620091031000,3.255031005859375,-0.6713827252388,5.192054748535156,-0.7353935837745667
1684108620101049000,3.265049072265625,-0.3036198914051056,4.0501885414123535,-0.7334311008453369
1684108620111066000,3.275066162109375,0.022758224979043007,2.608046531677246,-0.7106962203979492
1684108620121084200,3.285084228515625,0.2536731958389282,0.9319978356361389,-0.6164869070053101
1684108620131102200,3.295102294921875,0.32869043946266174,-0.6301631331443787,-0.4319703280925751
1684108620141119200,3.305119140625,0.3133343756198883,-1.5817328691482544,-0.25038933753967285
1684108620151137000,3.315136962890625,0.2757445275783539,-1.959242343902588,-0.17549730837345123
1684108620161155300,3.3251552734375,0.26728710532188416,-1.9500962495803833,-0.24655736982822418
1684108620171172000,3.335172119140625,0.2886258363723755,-1.6687802076339722,-0.3979215919971466
1684108620181190000,3.34518994140625,0.30294299125671387,-1.2118539810180664,-0.5480324625968933
1684108620191208200,3.355208251953125,0.2959495484828949,-0.7091848254203796,-0.602091908454895
1684108620201225000,3.365224853515625,0.2503570318222046,-0.20219087600708008,-0.5612038969993591
1684108620211243300,3.3752431640625,0.14752709865570068,0.28759631514549255,-0.42297497391700745
1684108620221261000,3.385260986328125,0.04568222910165787,0.6996093988418579,-0.19598309695720673
1684108620231278000,3.395278076171875,-0.029234714806079865,0.973268449306488,0.08476538211107254
1684108620241296100,3.405296142578125,-0.09867264330387115,1.0794038772583008,0.36553049087524414
1684108620251314200,3.415314208984375,-0.17689001560211182,1.056787133216858,0.5743772387504578
1684108620261331200,3.425331298828125,-0.2498883157968521,0.9876676797866821,0.675218403339386
1684108620271349200,3.435349365234375,-0.2892584800720215,0.9227311611175537,0.6861237287521362
1684108620281367000,3.445366943359375,-0.3127440810203552,0.9070694446563721,0.6479329466819763
1684108620291384300,3.45538427734375,-0.3118365406990051,0.9705919027328491,0.6179346442222595
1684108620301402000,3.465402099609375,-0.2840219736099243,1.0741313695907593,0.6160754561424255
1684108620311420200,3.475420166015625,-0.23717549443244934,1.1875778436660767,0.64007568359375
1684108620321437200,3.485437255859375,-0.18620285391807556,1.253722071647644,0.6670199632644653
1684108620331455200,3.495455322265625,-0.14146794378757477,1.217847466468811,0.6923409104347229
1684108620341473000,3.50547314453125,-0.08858449757099152,1.0704740285873413,0.7124168872833252
1684108620351490000,3.515489990234375,-0.023659052327275276,0.8473576307296753,0.7595719695091248
1684108620361508000,3.525508056640625,0.03010404482483864,0.597307026386261,0.8346864581108093
1684108620371526100,3.535526123046875,0.03151177987456322,0.37729647755622864,0.9184836745262146
1684108620381543200,3.545543212890625,-0.012954488396644592,0.23096856474876404,0.9681326746940613
1684108620391561000,3.55556103515625,-0.09647257626056671,0.19486798346042633,0.9640422463417053
1684108620401579300,3.565579345703125,-0.1896512508392334,0.31679201126098633,0.8817092776298523
1684108620411596000,3.575595947265625,-0.2649882435798645,0.54002845287323,0.7523271441459656
1684108620421614000,3.585614013671875,-0.2880690395832062,0.7353823184967041,0.6231532096862793
1684108620431632100,3.595632080078125,-0.2644801735877991,0.7958146333694458,0.49743539094924927
1684108620441649200,3.605649169921875,-0.2230706810951233,0.7535499930381775,0.3778613209724426
1684108620451667000,3.6156669921875,-0.16846871376037598,0.6542545557022095,0.24006043374538422
1684108620461685200,3.625685302734375,-0.09783609211444855,0.5487989783287048,0.08139409869909286
1684108620471702000,3.635701904296875,-0.03882453590631485,0.4931887686252594,-0.07794952392578125
1684108620481720300,3.64572021484375,0.01460220105946064,0.4775831997394562,-0.2319185733795166
1684108620491738000,3.655738037109375,0.05957961827516556,0.4399937689304352,-0.3565749526023865
1684108620501755100,3.665755126953125,0.08969145268201828,0.3751593828201294,-0.43485403060913086
1684108620511773200,3.675773193359375,0.09937594830989838,0.2973271608352661,-0.454655259847641
1684108620521791200,3.685791259765625,0.08189096301794052,0.20583611726760864,-0.4329281449317932
1684108620531808300,3.695808349609375,0.03922954946756363,0.09372290223836899,-0.34239330887794495
1684108620541826300,3.705826416015625,0.012116440571844578,-0.04731278494000435,-0.15773610770702362
1684108620551844000,3.715843994140625,0.03093753382563591,-0.19017192721366882,0.0972873866558075
1684108620561861000,3.725861083984375,0.06295778602361679,-0.32620060443878174,0.39125028252601624
1684108620571879200,3.735879150390625,0.0575406588613987,-0.4903579354286194,0.6896321773529053
1684108620581897000,3.74589697265625,0.026375016197562218,-0.7023730278015137,0.9540497064590454
1684108620591915000,3.7559150390625,0.014083127491176128,-0.9444593191146851,1.1354048252105713
1684108620601932000,3.76593212890625,0.029733192175626755,-1.1455596685409546,1.183902621269226
1684108620611950000,3.7759501953125,0.05329196900129318,-1.194806694984436,1.0352063179016113
1684108620621968100,3.785968017578125,0.10180197656154633,-1.123765230178833,0.7323079109191895
1684108620631985200,3.795985107421875,0.20113113522529602,-1.167464017868042,0.4114552438259125
1684108620642003000,3.8060029296875,0.34046560525894165,-1.397750735282898,0.1516455113887787
1684108620652021200,3.816021240234375,0.4872426390647888,-1.7109488248825073,-0.05315948277711868
1684108620662038000,3.8260380859375,0.5935711860656738,-1.9827097654342651,-0.23781268298625946
1684108620672056300,3.836056396484375,0.6438412666320801,-2.114164113998413,-0.39785924553871155
1684108620682074000,3.84607421875,0.6513385772705078,-2.020368814468384,-0.4858945608139038
1684108620692091100,3.856091064453125,0.6213802695274353,-1.7614420652389526,-0.5138196349143982
1684108620702109200,3.866109130859375,0.5263837575912476,-1.435036301612854,-0.5017251968383789
1684108620712127200,3.876127197265625,0.3605339229106903,-1.0801711082458496,-0.4660404622554779
1684108620722144000,3.88614404296875,0.14859344065189362,-0.7165840864181519,-0.41125500202178955
1684108620732162300,3.896162353515625,-0.06284686177968979,-0.37912026047706604,-0.3281083106994629
1684108620742180000,3.90618017578125,-0.23463194072246552,0.015904270112514496,-0.24682918190956116
1684108620752197000,3.916197021484375,-0.35394418239593506,0.5270334482192993,-0.22276638448238373
1684108620762215200,3.926215087890625,-0.4470576047897339,1.142265796661377,-0.2870468497276306
1684108620772233200,3.936233154296875,-0.5220856666564941,1.8528035879135132,-0.4857981503009796
1684108620782250200,3.946250244140625,-0.5641494989395142,2.48832106590271,-0.795355498790741
1684108620792268000,3.95626806640625,-0.5767621397972107,2.896059513092041,-1.1530629396438599
1684108620802286000,3.9662861328125,-0.586608350276947,2.616513967514038,-1.379022240638733
1684108620812303000,3.97630322265625,-0.6583964824676514,0.2979266345500946,-0.8849921226501465
1684108620822321200,3.986321044921875,-0.5418744087219238,-1.3251971006393433,-0.28809404373168945
1684108620832339000,3.9963388671875,-0.25879302620887756,-1.6346790790557861,0.11292406171560287
1684108620842356200,4.006356201171875,-0.012328645214438438,-1.2594362497329712,0.40011218190193176
1684108620852374000,4.0163740234375,0.04630659893155098,-0.615437388420105,0.6169693470001221
1684108620862392000,4.02639208984375,-0.05889039486646652,0.07002326101064682,0.7903012037277222
1684108620872409000,4.0364091796875,-0.21275952458381653,0.6500083208084106,0.9418286681175232
1684108620882427100,4.04642724609375,-0.2886202037334442,1.0621505975723267,1.0849897861480713
1684108620892445200,4.056445068359375,-0.2602551579475403,1.2996658086776733,1.199955940246582
1684108620902462500,4.06646240234375,-0.18163704872131348,1.3209210634231567,1.2898151874542236
1684108620912480300,4.076480224609375,-0.08453293889760971,1.1397207975387573,1.327043056488037
1684108620922498600,4.08649853515625,0.023569295182824135,0.8074885010719299,1.313300371170044
1684108620932515300,4.096515380859375,0.144528329372406,0.3854296803474426,1.2349703311920166
1684108620942533400,4.106533447265625,0.2676955461502075,-0.054044902324676514,1.0993422269821167
1684108620952551400,4.116551513671875,0.378875195980072,-0.4313586950302124,0.91265869140625
1684108620962568400,4.126568359375,0.4687776565551758,-0.7234089970588684,0.6806720495223999
1684108620972586500,4.13658642578125,0.5323550701141357,-0.9112471342086792,0.42305681109428406
1684108620982604500,4.1466044921875,0.565432071685791,-0.9902111887931824,0.14570188522338867
1684108620992621300,4.156621337890625,0.5756149291992188,-0.9515002965927124,-0.13850094377994537
1684108621002639600,4.1666396484375,0.5591614246368408,-0.8369995355606079,-0.3743475675582886
1684108621012657400,4.176657470703125,0.530383825302124,-0.6954829096794128,-0.5186575651168823
1684108621022674700,4.1866748046875,0.46534645557403564,-0.5696679353713989,-0.5715764164924622
1684108621032692500,4.1966923828125,0.3407124876976013,-0.4856492877006531,-0.5627978444099426
1684108621042710500,4.20671044921875,0.16845522820949554,-0.4353983700275421,-0.5051965713500977
1684108621052727600,4.2167275390625,0.0017792889848351479,-0.36496105790138245,-0.4158279299736023
1684108621062745600,4.22674560546875,-0.10159476846456528,-0.23911045491695404,-0.30619996786117554
1684108621072763400,4.236763427734375,-0.14703495800495148,-0.07751002162694931,-0.19332823157310486
1684108621082780400,4.246780517578125,-0.1620464026927948,0.07978053390979767,-0.09399126470088959
1684108621092798500,4.256798583984375,-0.1708039939403534,0.19408439099788666,-0.0158299021422863
1684108621102816500,4.26681640625,-0.18143481016159058,0.24271875619888306,0.04333861172199249
1684108621112834600,4.27683447265625,-0.1952444463968277,0.24952910840511322,0.07626695930957794
1684108621122851300,4.286851318359375,-0.21236643195152283,0.23107339441776276,0.08579894155263901
1684108621132869400,4.296869384765625,-0.20385339856147766,0.19735679030418396,0.06588733941316605
1684108621142887400,4.306887451171875,-0.15460222959518433,0.14094917476177216,0.028684841468930244
1684108621152904400,4.316904541015625,-0.06822896748781204,0.047027572989463806,-0.013219031505286694
1684108621162922500,4.326922607421875,0.018966391682624817,-0.10574865341186523,-0.06214822456240654
1684108621172940500,4.3369404296875,0.08317284286022186,-0.28402581810951233,-0.1246272400021553
1684108621182957300,4.346957275390625,0.1328546404838562,-0.4484514892101288,-0.20184214413166046
1684108621192975600,4.3569755859375,0.16876310110092163,-0.5699083805084229,-0.2963496744632721
1684108621202993400,4.366993408203125,0.20553335547447205,-0.6502934694290161,-0.4033714830875397
1684108621213010400,4.377010498046875,0.25045764446258545,-0.7203418016433716,-0.5090299844741821
1684108621223028500,4.387028564453125,0.30876967310905457,-0.8049980998039246,-0.5982370972633362
1684108621233046500,4.397046630859375,0.38114863634109497,-0.9444180727005005,-0.656079113483429
1684108621243063600,4.4070634765625,0.4604860842227936,-1.1380953788757324,-0.6825104355812073
1684108621253081600,4.41708154296875,0.5442877411842346,-1.3608115911483765,-0.666821300983429
1684108621263099400,4.427099365234375,0.631746232509613,-1.578350305557251,-0.6306848526000977
1684108621273116400,4.437116455078125,0.7194759845733643,-1.7757399082183838,-0.5902978777885437
1684108621283134500,4.447134521484375,0.7989002466201782,-1.9282634258270264,-0.5605943202972412
1684108621293152500,4.457152587890625,0.854559600353241,-2.0250208377838135,-0.5474887490272522
1684108621303169500,4.46716943359375,0.8835590481758118,-2.037428140640259,-0.5482432246208191
1684108621313187300,4.477187255859375,0.8680112957954407,-1.9720251560211182,-0.5544320344924927
1684108621323205400,4.487205322265625,0.7964335083961487,-1.8227852582931519,-0.5470039248466492
1684108621333222400,4.497222412109375,0.6502876877784729,-1.5668874979019165,-0.5479755997657776
1684108621343240400,4.507240478515625,0.42186033725738525,-1.223889708518982,-0.5623854398727417
1684108621353258500,4.517258544921875,0.16871199011802673,-0.8168045878410339,-0.6064820885658264
1684108621363275500,4.527275634765625,-0.06281284987926483,-0.4009048342704773,-0.6747990846633911
1684108621373293300,4.537293212890625,-0.24662744998931885,0.006402193568646908,-0.7490960359573364
1684108621383311600,4.5473115234375,-0.36692509055137634,0.42286866903305054,-0.8071604371070862
1684108621393328400,4.557328369140625,-0.4395096004009247,0.7596749663352966,-0.822076678276062
1684108621403346400,4.567346435546875,-0.4893738329410553,0.9468499422073364,-0.788743257522583
1684108621413364500,4.577364501953125,-0.5525864958763123,1.0034799575805664,-0.7463589906692505
1684108621423381500,4.587381591796875,-0.6508121490478516,1.020647406578064,-0.6995821595191956
1684108621433399600,4.597399658203125,-0.771809995174408,1.0337538719177246,-0.6371660828590393
1684108621443417600,4.60741748046875,-0.9051249027252197,1.085566520690918,-0.5655273199081421
1684108621453434400,4.617434326171875,-0.9773637652397156,1.1664141416549683,-0.491690456867218
1684108621463452700,4.62745263671875,-0.9447621703147888,1.1353009939193726,-0.42697030305862427
1684108621473470500,4.637470458984375,-0.7960016131401062,0.6761399507522583,-0.28234079480171204
1684108621483487500,4.647487548828125,-0.5383815169334412,0.19538375735282898,-0.053999513387680054
1684108621493505500,4.657505615234375,-0.22821463644504547,0.11893168091773987,0.1864326149225235
1684108621503523300,4.6675234375,0.06379803270101547,0.3978983461856842,0.39251255989074707
1684108621513540600,4.67754052734375,0.30249035358428955,0.8010981678962708,0.5488538146018982
1684108621523558400,4.687558349609375,0.4239952266216278,1.0722798109054565,0.6502222418785095
1684108621533576400,4.697576416015625,0.4772506654262543,1.1446611881256104,0.7273657917976379
1684108621543593500,4.707593505859375,0.4978153109550476,1.0806713104248047,0.7881830930709839
1684108621553611500,4.717611572265625,0.45818260312080383,0.9151021242141724,0.8294976353645325
1684108621563629300,4.72762939453125,0.3716389238834381,0.682766854763031,0.8427268862724304
1684108621573646600,4.737646484375,0.27926862239837646,0.41081082820892334,0.8236453533172607
1684108621583664400,4.747664306640625,0.22730475664138794,0.14835259318351746,0.7704992890357971
1684108621593682400,4.757682373046875,0.23320618271827698,-0.06219283491373062,0.6841129660606384
1684108621603700500,4.767700439453125,0.29838278889656067,-0.1970885992050171,0.5848172903060913
1684108621613717500,4.777717529296875,0.41268929839134216,-0.28209981322288513,0.4946298599243164
1684108621623735600,4.787735595703125,0.5547976493835449,-0.3644607365131378,0.41252806782722473
1684108621633753600,4.797753662109375,0.6937238574028015,-0.4642682671546936,0.30868595838546753
1684108621643770400,4.807770263671875,0.800152599811554,-0.5703846216201782,0.1861427277326584
1684108621653788700,4.81778857421875,0.8720978498458862,-0.6235753893852234,0.07482259720563889
1684108621663806500,4.827806396484375,0.9169255495071411,-0.5996831059455872,-0.023638993501663208
1684108621673823200,4.8378232421875,0.9031121730804443,-0.4356052875518799,-0.11231710016727448
1684108621683841500,4.847841552734375,0.762970507144928,0.27717217803001404,-0.37294045090675354
1684108621693859600,4.857859619140625,0.4661034345626831,1.4363219738006592,-0.7847792506217957
1684108621703876600,4.867876708984375,0.23978720605373383,2.1114449501037598,-0.998076856136322
1684108621713894400,4.877894287109375,0.11300163716077805,2.1889684200286865,-1.0089850425720215
1684108621723912400,4.887912353515625,0.021400880068540573,1.8741322755813599,-0.9284776449203491
1684108621733929500,4.897929443359375,-0.06272009015083313,1.146822214126587,-0.7606046795845032
1684108621743947500,4.907947509765625,-0.13571147620677948,0.18433819711208344,-0.5315637588500977
1684108621753965300,4.91796533203125,-0.1449226289987564,-0.5087873935699463,-0.3632492125034332
1684108621763982600,4.927982666015625,-0.0891491174697876,-0.855789303779602,-0.271369606256485
1684108621774000400,4.93800048828125,-0.04250620678067207,-0.9716752767562866,-0.21632784605026245
1684108621784018400,4.948018310546875,-0.052922628819942474,-0.9360493421554565,-0.17314735054969788
1684108621794035500,4.958035400390625,-0.09830565005540848,-0.7608076333999634,-0.13808342814445496
1684108621804053500,4.968053466796875,-0.15701796114444733,-0.46139293909072876,-0.07829119265079498
1684108621814071300,4.9780712890625,-0.20526577532291412,-0.06632296741008759,0.019922208040952682
1684108621824088600,4.988088623046875,-0.22165140509605408,0.34984228014945984,0.15832588076591492
1684108621834106400,4.9981064453125,-0.1815909892320633,0.7486382126808167,0.3360174596309662
1684108621844124700,5.008124755859375,-0.09399030357599258,1.0788028240203857,0.5366589426994324
1684108621854141400,5.018141357421875,0.009522314183413982,1.1865630149841309,0.7043882608413696
1684108621864159500,5.028159423828125,0.10608959943056107,0.7162157297134399,0.7352910041809082
1684108621874177500,5.038177490234375,0.18466722965240479,-0.12518468499183655,0.5001187324523926
1684108621884194300,5.0481943359375,0.20840610563755035,-0.5263893604278564,-0.016627488657832146
1684108621894212600,5.058212646484375,0.16926702857017517,-0.6199986934661865,-0.5686211585998535
1684108621904230700,5.068230712890625,0.127031147480011,-0.6780686378479004,-0.9666883945465088
1684108621914247400,5.078247314453125,0.0711575448513031,-0.7190901041030884,-1.1567327976226807
1684108621924265700,5.088265625,0.0028085762169212103,-0.7071322798728943,-1.1843388080596924
1684108621934283500,5.098283447265625,-0.0462961420416832,-0.6329556107521057,-1.1389310359954834
1684108621944300500,5.108300537109375,-0.0935981422662735,-0.5291069746017456,-1.0464141368865967
1684108621954318600,5.118318603515625,-0.10317607969045639,-0.3904082775115967,-1.0114059448242188
1684108621964336600,5.128336669921875,0.2035585641860962,0.033126216381788254,-2.8794569969177246
1684108621974353700,5.138353759765625,0.13776227831840515,-2.364321231842041,-2.0060977935791016
1684108621984371700,5.148371826171875,0.29926249384880066,-4.1626458168029785,-2.336390733718872
1684108621994389500,5.158389404296875,0.2434735894203186,-5.430915832519531,-1.7508517503738403
1684108622004406800,5.16840673828125,0.30369430780410767,-5.613204479217529,-1.7186506986618042
1684108622014424600,5.178424560546875,0.20500391721725464,-4.442180633544922,-1.442341923713684
1684108622024442600,5.188442626953125,0.43545711040496826,-3.3863425254821777,-1.9819968938827515
1684108622034460700,5.198460693359375,0.5195181369781494,-2.6981754302978516,-1.921787977218628
1684108622044477700,5.208477783203125,0.50983065366745,-2.285776376724243,-1.497642993927002
1684108622054495500,5.21849560546875,0.4850636422634125,-1.8450913429260254,-0.8741394877433777
1684108622064513800,5.228513671875,0.30769336223602295,-0.634452223777771,-0.0465453565120697
1684108622074530600,5.238530517578125,0.3094545304775238,0.021629981696605682,0.13029994070529938
1684108622084548400,5.24854833984375,0.4082831144332886,0.6217477321624756,0.288157194852829
1684108622094566700,5.258566650390625,0.4802344739437103,0.929459273815155,0.46824195981025696
1684108622104583400,5.26858349609375,0.4936735928058624,1.0935161113739014,0.7282599806785583
1684108622114601700,5.278601806640625,0.34681010246276855,1.911915898323059,1.3794031143188477
1684108622124619500,5.28861962890625,0.06749671697616577,3.5258185863494873,2.384176731109619
1684108622134636500,5.298636474609375,-0.15531973540782928,4.409129619598389,3.0247414112091064
1684108622144654600,5.308654541015625,-0.37436553835868835,4.289196014404297,3.170764923095703
1684108622154672600,5.318672607421875,-0.5518755316734314,4.220917701721191,3.2723634243011475
1684108622164689700,5.328689697265625,-0.6845062375068665,4.087301731109619,3.312530994415283
1684108622174707700,5.338707763671875,-0.8472132086753845,3.5245766639709473,3.143190860748291
1684108622184725500,5.3487255859375,-1.0198259353637695,2.616698741912842,2.7501251697540283
1684108622194742800,5.35874267578125,-1.1315957307815552,1.522843360900879,2.1748085021972656
1684108622204760600,5.368760498046875,-1.0643244981765747,0.7802395224571228,1.3744276762008667
1684108622214778600,5.378778564453125,-0.6628185510635376,1.13645601272583,0.08271097391843796
1684108622224795600,5.388795654296875,-0.21893666684627533,1.4292583465576172,-1.130659818649292
1684108622234813700,5.398813720703125,0.04547100514173508,1.1339943408966064,-1.8821910619735718
1684108622244831500,5.40883154296875,0.16807708144187927,0.35530728101730347,-2.2520852088928223
1684108622254848500,5.4188486328125,0.13463838398456573,-1.2574450969696045,-2.1779985427856445
1684108622264866600,5.428866455078125,0.03711635246872902,-2.835071563720703,-1.8344595432281494
1684108622274884600,5.438884521484375,0.0468311607837677,-3.4569904804229736,-1.5455050468444824
1684108622284901600,5.448901611328125,0.14717134833335876,-3.399245023727417,-1.31161367893219
1684108622294919400,5.45891943359375,0.19737985730171204,-3.0467891693115234,-1.0876646041870117
1684108622304937700,5.468937744140625,0.14238637685775757,-2.5379679203033447,-0.8472291827201843
1684108622314954500,5.47895458984375,0.004845014773309231,-1.880191683769226,-0.5916847586631775
1684108622324972500,5.48897265625,-0.14830298721790314,-1.143208622932434,-0.334561288356781
1684108622334990600,5.498990478515625,-0.2535569965839386,-0.42263561487197876,-0.10630016773939133
1684108622345007600,5.509007568359375,-0.27729853987693787,0.2268742173910141,0.06409952789545059
1684108622355025400,5.519025390625,-0.2061416506767273,0.8514217734336853,0.09626023471355438
1684108622365043700,5.529043701171875,-0.11616168916225433,1.244889736175537,0.01821869984269142
1684108622375061500,5.5390615234375,-0.057575009763240814,0.989993691444397,0.013188974000513554
1684108622385078800,5.549078857421875,0.00018043015734292567,0.4547731578350067,0.02722303383052349
1684108622395096600,5.5590966796875,0.03708769753575325,0.008179147727787495,-0.01968993805348873
1684108622405113600,5.569113525390625,0.06442984193563461,-0.3656868636608124,-0.09429813176393509
1684108622415131600,5.579131591796875,0.11032864451408386,-0.6828532814979553,-0.15737652778625488
1684108622425149700,5.589149658203125,0.16322168707847595,-0.8835709691047668,-0.20641358196735382
1684108622435167500,5.59916748046875,0.20326584577560425,-0.9435014724731445,-0.24018627405166626
1684108622445184800,5.609184814453125,0.2102726250886917,-0.8552547097206116,-0.27345502376556396
1684108622455202600,5.61920263671875,0.16144639253616333,-0.6716104745864868,-0.30842500925064087
1684108622465220600,5.629220703125,0.0488109327852726,-0.4244520664215088,-0.34278377890586853
1684108622475237600,5.639237548828125,-0.05733606964349747,-0.15767844021320343,-0.3563893139362335
1684108622485255400,5.64925537109375,-0.12365064769983292,0.04693064093589783,-0.3384057879447937
1684108622495273500,5.6592734375,-0.1716068536043167,0.15841160714626312,-0.2999824285507202
1684108622505290500,5.66929052734375,-0.22075068950653076,0.2023569643497467,-0.24342995882034302
1684108622515308500,5.67930859375,-0.2514660060405731,0.2292470782995224,-0.17216099798679352
1684108622525326600,5.68932666015625,-0.2560913860797882,0.2581442594528198,-0.0955493152141571
1684108622535343600,5.699343505859375,-0.23734435439109802,0.2893298864364624,-0.02619139663875103
1684108622545361400,5.709361328125,-0.19597135484218597,0.2972346842288971,0.02105201594531536
1684108622555379700,5.719379638671875,-0.14593620598316193,0.2518852949142456,0.04535951465368271
1684108622565396500,5.729396484375,-0.08848489820957184,0.13774541020393372,0.046348344534635544
1684108622575414800,5.739414794921875,-0.030129410326480865,-0.01665731519460678,0.03110341727733612
1684108622585432600,5.7494326171875,0.012258792296051979,-0.13465505838394165,-0.003450564341619611
1684108622595449600,5.75944970703125,0.03775934875011444,-0.17261725664138794,-0.044196080416440964
1684108622605467600,5.769467529296875,0.04749559611082077,-0.13226424157619476,-0.07177311182022095
1684108622615485700,5.779485595703125,0.04510720446705818,-0.055061519145965576,-0.07825836539268494
1684108622625502500,5.78950244140625,0.03684714436531067,0.028893835842609406,-0.05666571855545044
1684108622635520800,5.799520751953125,0.03765099123120308,0.0869128480553627,-0.01723065786063671
1684108622645538600,5.80953857421875,0.03952159732580185,0.11054787039756775,0.034722018986940384
1684108622655555600,5.8195556640625,0.029904769733548164,0.1154123991727829,0.07875227183103561
1684108622665573600,5.82957373046875,0.025053024291992188,0.11728353053331375,0.10971152037382126
1684108622675591700,5.839591796875,0.010917172767221928,0.13843995332717896,0.11311613768339157
1684108622685608700,5.849608642578125,-0.017702488228678703,0.16258230805397034,0.08238272368907928
1684108622695626500,5.85962646484375,-0.06118711456656456,0.14715062081813812,0.03053337149322033
1684108622705644500,5.86964453125,-0.10337904095649719,0.085385262966156,-0.019131919369101524
1684108622715661600,5.87966162109375,-0.1064910963177681,0.025788500905036926,-0.041348330676555634
1684108622725679600,5.8896796875,-0.08328218013048172,0.020073890686035156,-0.0465012826025486
1684108622735697400,5.899697509765625,-0.047190871089696884,0.0655822604894638,-0.04218796640634537
1684108622745714700,5.909714599609375,-0.019955523312091827,0.1448296755552292,-0.026338964700698853
1684108622755732500,5.919732421875,-0.0022661576513201,0.22209995985031128,-0.004819350317120552
1684108622765750500,5.92975048828125,0.012807067483663559,0.2399095892906189,0.030428918078541756
1684108622775767600,5.939767578125,0.024985458701848984,0.1824338585138321,0.07522585242986679
1684108622785785600,5.94978564453125,0.02045702002942562,0.06316925585269928,0.11170077323913574
1684108622795803600,5.9598037109375,-0.004119301214814186,-0.044740255922079086,0.12296450138092041
1684108622805821700,5.96982177734375,-0.0342756062746048,-0.0752883106470108,0.11431083083152771
1684108622815838500,5.97983837890625,-0.07112463563680649,0.006272240541875362,0.09632988274097443
1684108622825856800,5.989856689453125,-0.11427024006843567,0.18056228756904602,0.09664732962846756
1684108622835874600,5.99987451171875,-0.14005158841609955,0.3901630938053131,0.12893535196781158
1684108622845891600,6.0098916015625,-0.14995454251766205,0.6036987900733948,0.18570943176746368
1684108622855909600,6.01990966796875,-0.12488668411970139,0.7889647483825684,0.25838997960090637
1684108622865927700,6.029927734375,-0.07911067456007004,0.9167647957801819,0.3388131856918335
1684108622875944700,6.03994482421875,-0.00794480461627245,0.9501724243164062,0.43087852001190186
1684108622885962500,6.04996240234375,0.05719424784183502,0.8837398290634155,0.5057956576347351
1684108622895980500,6.05998046875,0.06476040184497833,0.766848087310791,0.5604298114776611
1684108622905997300,6.069997314453125,0.018216874450445175,0.6690307259559631,0.5835804343223572
1684108622916015400,6.080015380859375,-0.04423525929450989,0.6341776847839355,0.5763064622879028
1684108622926033200,6.090033203125,-0.07557906955480576,0.6516458988189697,0.5418672561645508
1684108622936050400,6.100050537109375,-0.06661150604486465,0.68011873960495,0.4877484142780304
1684108622946068200,6.110068115234375,-0.033774733543395996,0.6808934211730957,0.42152172327041626
1684108622956086300,6.120086181640625,0.002694593043997884,0.6428802609443665,0.3517809808254242
1684108622966103300,6.130103271484375,0.05514741316437721,0.5633183121681213,0.2888004183769226
1684108622976121300,6.140121337890625,0.10895553976297379,0.4456024467945099,0.23145127296447754
1684108622986139400,6.150139404296875,0.1584695726633072,0.27981987595558167,0.1825612336397171
1684108622996156400,6.160156494140625,0.19451045989990234,0.08645328134298325,0.14889773726463318
1684108623006174200,6.17017431640625,0.2237439751625061,-0.11384040117263794,0.1209917962551117
1684108623016192500,6.180192626953125,0.24136628210544586,-0.3042683005332947,0.10364286601543427
1684108623026209300,6.190209228515625,0.2615796625614166,-0.47855862975120544,0.08610488474369049
1684108623036227300,6.200227294921875,0.27846360206604004,-0.6106929183006287,0.07751662284135818
1684108623046245400,6.210245361328125,0.27747130393981934,-0.6857953667640686,0.06782271713018417
1684108623056262100,6.22026220703125,0.2574177384376526,-0.6757688522338867,0.06441491097211838
1684108623066280400,6.230280517578125,0.19172769784927368,-0.5004276037216187,0.05360487103462219
1684108623076298200,6.24029833984375,0.06071317568421364,-0.027235914021730423,-0.018518080934882164
1684108623086315500,6.2503154296875,-0.06087876856327057,0.5080325603485107,-0.1151341050863266
1684108623096333300,6.260333251953125,-0.1335383504629135,0.8308815956115723,-0.19667546451091766
1684108623106351400,6.270351318359375,-0.17514997720718384,0.878273069858551,-0.24708989262580872
1684108623116369200,6.280369140625,-0.191969096660614,0.6521197557449341,-0.24534428119659424
1684108623126386400,6.290386474609375,-0.1925715059041977,0.0869906097650528,-0.16624121367931366
1684108623136404200,6.300404296875,-0.14318528771400452,-0.5190781354904175,-0.09389302879571915
1684108623146422300,6.31042236328125,-0.04697700962424278,-0.824039101600647,-0.1271769404411316
1684108623156439300,6.320439208984375,0.034308597445487976,-0.8846085071563721,-0.2608930170536041
1684108623166457300,6.330457275390625,0.05585303530097008,-0.8467913269996643,-0.4244731664657593
1684108623176475400,6.340475341796875,0.04993477836251259,-0.7905086874961853,-0.5470793843269348
1684108623186492400,6.350492431640625,0.049079105257987976,-0.6987824440002441,-0.5967883467674255
1684108623196510200,6.36051025390625,0.06160355359315872,-0.5871440172195435,-0.5642148852348328
1684108623206528500,6.370528564453125,0.0721462070941925,-0.5010865926742554,-0.4721946716308594
1684108623216545300,6.380545166015625,0.07206708937883377,-0.45257893204689026,-0.34685736894607544
1684108623226563300,6.390563232421875,0.055360015481710434,-0.41641056537628174,-0.21146784722805023
1684108623236581400,6.400581298828125,0.025436298921704292,-0.3710317313671112,-0.08498018234968185
1684108623246598100,6.41059814453125,-0.0004107446875423193,-0.2980440557003021,0.02631252072751522
1684108623256616400,6.420616455078125,-0.017137793824076653,-0.19215801358222961,0.1025407537817955
1684108623266634200,6.43063427734375,-0.014270901679992676,-0.06138110160827637,0.13687503337860107
1684108623276651300,6.4406513671875,0.0033487461041659117,0.05316704511642456,0.13344186544418335
1684108623286669300,6.45066943359375,0.032069604843854904,0.10622414201498032,0.0995589941740036
1684108623296687400,6.460687255859375,0.07369913160800934,0.07282489538192749,0.05656356364488602
1684108623306704400,6.470704345703125,0.12620948255062103,-0.02272345870733261,0.018715515732765198
1684108623316722400,6.480722412109375,0.15767788887023926,-0.12094439566135406,-0.008692040108144283
1684108623326740200,6.490740234375,0.161507248878479,-0.21096669137477875,-0.013734735548496246
1684108623336757500,6.500757568359375,0.1447981745004654,-0.25135883688926697,-0.007282224018126726
1684108623346775300,6.510775390625,0.1288042962551117,-0.23606909811496735,0.021151814609766006
1684108623356793300,6.52079345703125,0.12473224103450775,-0.180093914270401,0.06445249915122986
1684108623366810400,6.530810302734375,0.1307656466960907,-0.10985064506530762,0.1079869270324707
1684108623376828400,6.540828369140625,0.13266713917255402,-0.04231996834278107,0.14752772450447083
1684108623386846200,6.55084619140625,0.12284326553344727,0.008341344073414803,0.15663200616836548
1684108623396863200,6.56086328125,0.0965699702501297,0.04507219046354294,0.1285683512687683
1684108623406881300,6.57088134765625,0.05692961439490318,0.07161778211593628,0.06925816088914871
1684108623416899300,6.5808994140625,0.02061665989458561,0.11086380481719971,-0.01034157257527113
1684108623426917400,6.59091748046875,-0.0026902605313807726,0.15699879825115204,-0.088320791721344
1684108623436934100,6.60093408203125,-0.01627453789114952,0.19058048725128174,-0.15559716522693634
1684108623446952400,6.610952392578125,-0.02897115796804428,0.20473705232143402,-0.19821040332317352
1684108623456970500,6.620970458984375,-0.04384851083159447,0.2010563611984253,-0.22480247914791107
1684108623466987300,6.6309873046875,-0.06620335578918457,0.18356871604919434,-0.2349483221769333
1684108623477005300,6.64100537109375,-0.09567158669233322,0.12386153638362885,-0.2151818573474884
1684108623487023400,6.6510234375,-0.1132654920220375,0.03200938552618027,-0.1687680184841156
1684108623497040400,6.661040283203125,-0.11334337294101715,-0.059889111667871475,-0.11191213130950928
1684108623507058400,6.671058349609375,-0.07764503359794617,-0.08955033123493195,-0.057198021560907364
1684108623517076200,6.681076171875,-0.026929831132292747,-0.05136043578386307,-0.012560734525322914
1684108623527093500,6.691093505859375,0.013605078682303429,0.023498093709349632,0.014886070042848587
1684108623537111300,6.701111328125,0.047349680215120316,0.07901985943317413,0.04084760695695877
1684108623547129300,6.71112939453125,0.07593712210655212,0.0733284205198288,0.062301233410835266
1684108623557146400,6.721146484375,0.10430073738098145,0.008998509496450424,0.08692558854818344
1684108623567164400,6.731164306640625,0.11786288768053055,-0.08572879433631897,0.11313987523317337
1684108623577182200,6.74118212890625,0.10886912792921066,-0.16430535912513733,0.1468357890844345
1684108623587199500,6.751199462890625,0.07989393174648285,-0.18822747468948364,0.18023689091205597
1684108623597217300,6.76121728515625,0.00839762482792139,-0.1347661167383194,0.19289717078208923
1684108623607235300,6.7712353515625,-0.09146958589553833,0.013969575054943562,0.17951372265815735
1684108623617252400,6.78125244140625,-0.18541280925273895,0.20932318270206451,0.15077289938926697
1684108623627270100,6.791270263671875,-0.23157525062561035,0.32333630323410034,0.123749278485775
1684108623637288400,6.801288330078125,-0.2170531302690506,0.2623886168003082,0.11624231934547424
1684108623647305200,6.81130517578125,-0.17430326342582703,0.0917404517531395,0.11134529858827591
1684108623657323300,6.8213232421875,-0.14361239969730377,-0.08285976946353912,0.09104111045598984
1684108623667341300,6.83134130859375,-0.11294078826904297,-0.17743074893951416,0.04173215106129646
1684108623677358300,6.8413583984375,-0.07643711566925049,-0.16959111392498016,-0.013192832469940186
1684108623687376400,6.85137646484375,-0.034408703446388245,-0.08667891472578049,-0.05883781239390373
1684108623697394400,6.86139453125,0.0099901482462883,0.0008246591314673424,-0.0752141922712326
1684108623707411200,6.8714111328125,0.055272411555051804,0.03364385664463043,-0.06103739142417908
1684108623717429500,6.881429443359375,0.09270408749580383,-0.00880399625748396,-0.0229306910187006
1684108623727447300,6.891447265625,0.1164190024137497,-0.10874417424201965,0.03674435615539551
1684108623737465300,6.90146533203125,0.11473923176527023,-0.19011689722537994,0.08202476799488068
1684108623747482400,6.911482421875,0.09087517857551575,-0.191961407661438,0.10435830056667328
1684108623757500400,6.92150048828125,0.05114174261689186,-0.12322423607110977,0.09425948560237885
1684108623767518200,6.931518310546875,0.00703047402203083,-0.029296409338712692,0.05684872716665268
1684108623777535500,6.941535400390625,-0.0235762856900692,0.043452631682157516,0.031929854303598404
1684108623787553300,6.95155322265625,-0.023775756359100342,0.06609269231557846,0.026459189131855965
1684108623797571300,6.9615712890625,-0.006888398434966803,0.05233302712440491,0.043673913925886154
1684108623807588400,6.97158837890625,0.027318574488162994,0.030820278450846672,0.07263046503067017
1684108623817606400,6.9816064453125,0.05636805668473244,0.008105733431875706,0.09906291961669922
1684108623827624400,6.99162451171875,0.0857911929488182,-0.011766508221626282,0.11413614451885223
1684108623837641200,7.00164111328125,0.11668705940246582,-0.021664146333932877,0.11562857776880264
1684108623847659300,7.0116591796875,0.13272114098072052,-0.026826150715351105,0.09703811258077621
1684108623857677600,7.021677490234375,0.11491233855485916,-0.03376057744026184,0.05805045738816261
1684108623867694300,7.0316943359375,0.0676920935511589,-0.059721603989601135,0.017301959916949272
1684108623877712100,7.041712158203125,0.029268771409988403,-0.0921550765633583,-0.014852318912744522
1684108623887730400,7.05173046875,0.011655955575406551,-0.11624763160943985,-0.03789398819208145
1684108623897747200,7.061747314453125,0.012064856477081776,-0.13887323439121246,-0.055628251284360886
1684108623907765200,7.07176513671875,-0.00524009857326746,-0.1675695925951004,-0.07223466038703918
1684108623917783300,7.081783203125,-0.037855494767427444,-0.19561490416526794,-0.09442020207643509
1684108623927800000,7.091800048828125,-0.060361072421073914,-0.2026565670967102,-0.11115603893995285
1684108623937818400,7.101818359375,-0.07037821412086487,-0.19217099249362946,-0.11549573391675949
1684108623947836200,7.111836181640625,-0.09490352869033813,-0.16171108186244965,-0.10498876869678497
1684108623957853400,7.121853515625,-0.13817757368087769,-0.10097698867321014,-0.08151846379041672
1684108623967871200,7.131871337890625,-0.19222722947597504,0.0000028889626264572144,-0.027911966666579247
1684108623977889300,7.14188916015625,-0.25846758484840393,0.1510138064622879,0.0506867840886116
1684108623987907000,7.151906982421875,-0.30085232853889465,0.34002554416656494,0.15940287709236145
1684108623997924400,7.16192431640625,-0.3110245168209076,0.5448870658874512,0.2767493426799774
1684108624007942100,7.171942138671875,-0.3018648326396942,0.7094232439994812,0.3861786127090454
1684108624017960200,7.181960205078125,-0.27634578943252563,0.6889350414276123,0.5014449954032898
1684108624027977200,7.191977294921875,-0.24299925565719604,0.3577139973640442,0.6141941547393799
1684108624037995000,7.2019951171875,-0.16870737075805664,-0.03486169874668121,0.6590011715888977
1684108624048013300,7.212013427734375,-0.054692916572093964,-0.1234554797410965,0.5636587142944336
1684108624058030000,7.222030029296875,0.039917364716529846,0.028979599475860596,0.38907280564308167
1684108624068048100,7.232048095703125,0.09325888007879257,0.25938937067985535,0.21323999762535095
1684108624078066200,7.242066162109375,0.11680109798908234,0.441327840089798,0.09144443273544312
1684108624088083200,7.252083251953125,0.14070163667201996,0.5285524725914001,0.017956366762518883
1684108624098101200,7.262101318359375,0.1693645864725113,0.5121129155158997,-0.013624717481434345
1684108624108119300,7.272119384765625,0.20499369502067566,0.40134918689727783,-0.014601831324398518
1684108624118136000,7.282135986328125,0.22766520082950592,0.24261616170406342,0.0002087561588268727
1684108624128154400,7.292154296875,0.23056964576244354,0.05896909907460213,0.030378108844161034
1684108624138172200,7.302172119140625,0.20757845044136047,-0.1150016337633133,0.06168708577752113
1684108624148189200,7.312189208984375,0.17171846330165863,-0.2526971697807312,0.10194050520658493
1684108624158207200,7.322207275390625,0.13479378819465637,-0.3264337182044983,0.14768372476100922
1684108624168225300,7.332225341796875,0.10577225685119629,-0.346445232629776,0.19451728463172913
1684108624178242300,7.3422421875,0.09405801445245743,-0.301197350025177,0.2351938933134079
1684108624188260400,7.35226025390625,0.09504471719264984,-0.18939118087291718,0.2724621891975403
1684108624198278100,7.362278076171875,0.1049024760723114,0.003251153975725174,0.3071769177913666
1684108624208296200,7.372296142578125,0.10301695764064789,0.23137407004833221,0.33776625990867615
1684108624218313200,7.382313232421875,0.07436246424913406,0.4445241689682007,0.35438835620880127
1684108624228331300,7.392331298828125,0.028159819543361664,0.6070965528488159,0.35371166467666626
1684108624238349300,7.402349365234375,-0.04358828812837601,0.6773818731307983,0.3354468047618866
1684108624248366000,7.412365966796875,-0.10828951746225357,0.6388840079307556,0.30351364612579346
1684108624258384100,7.422384033203125,-0.12159367650747299,0.5411839485168457,0.2661527991294861
1684108624268402200,7.432402099609375,-0.09147145599126816,0.4245004653930664,0.2287990301847458
1684108624278419200,7.442419189453125,-0.06296257674694061,0.30031266808509827,0.18321791291236877
1684108624288437200,7.452437255859375,-0.06281264126300812,0.19036909937858582,0.1249743103981018
1684108624298455300,7.462455322265625,-0.10283063352108002,0.1066952496767044,0.050722185522317886
1684108624308472000,7.47247216796875,-0.1507565975189209,0.054101813584566116,-0.04162212461233139
1684108624318490400,7.482490478515625,-0.1672523021697998,-0.0032593910582363605,-0.13733899593353271
1684108624328508200,7.492508056640625,-0.12122301757335663,-0.09650439023971558,-0.2263338416814804
1684108624338525200,7.502525146484375,-0.042096350342035294,-0.2254326194524765,-0.32014769315719604
1684108624348543200,7.512543212890625,0.03712443634867668,-0.37382662296295166,-0.40700215101242065
1684108624358561300,7.522561279296875,0.08561287820339203,-0.5156822800636292,-0.4948286712169647
1684108624368578300,7.532578369140625,0.0934031531214714,-0.6396572589874268,-0.5688091516494751
1684108624378596400,7.542596435546875,0.07032416015863419,-0.7347126007080078,-0.6207664608955383
1684108624388614100,7.5526142578125,0.03628656268119812,-0.7725582122802734,-0.6440461874008179
1684108624398632200,7.562632080078125,0.004897385835647583,-0.7440394163131714,-0.6276073455810547
1684108624408649200,7.572649169921875,-0.023365944623947144,-0.6574217081069946,-0.5762259364128113
1684108624418667300,7.582667236328125,-0.055001113563776016,-0.5393210649490356,-0.5175593495368958
1684108624428685300,7.592685302734375,-0.29399824142456055,0.4745030999183655,-0.005834539420902729
1684108624438702000,7.6027021484375,-1.821256399154663,4.271241188049316,2.2391834259033203
1684108624448720100,7.61272021484375,-3.6556437015533447,6.0981221199035645,4.0709662437438965
1684108624458738400,7.622738525390625,-3.070662021636963,3.9215304851531982,3.4984474182128906
1684108624468755200,7.632755126953125,-2.613837957382202,3.182213306427002,3.3263537883758545
1684108624478773000,7.64277294921875,-2.5843076705932617,3.859731674194336,3.6411757469177246
1684108624488791300,7.652791259765625,-2.3814616203308105,3.9330132007598877,3.488227605819702
1684108624498808000,7.66280810546875,-2.0794272422790527,3.8856303691864014,3.021085500717163
1684108624508826400,7.672826416015625,-1.9960246086120605,4.156282901763916,2.5162622928619385
1684108624518844200,7.68284423828125,-1.9864422082901,4.451901912689209,1.8897167444229126
1684108624528861200,7.692861083984375,-1.9728409051895142,4.736564636230469,1.1507047414779663
1684108624538879200,7.702879150390625,-1.68330717086792,4.655304431915283,0.1821962594985962
1684108624548897300,7.712897216796875,-1.1662260293960571,4.351294040679932,-0.8456581830978394
1684108624558914300,7.722914306640625,-1.838978886604309,6.061477184295654,-0.586251437664032
1684108624568932400,7.732932373046875,-0.4768204092979431,3.7290337085723877,-2.3509023189544678
1684108624578950100,7.7429501953125,0.88778156042099,1.6930313110351562,-3.5392098426818848
1684108624588967400,7.752967529296875,2.089404582977295,-0.5477351546287537,-3.7114267349243164
1684108624598985200,7.762985107421875,2.8492794036865234,-3.2470040321350098,-2.8285560607910156
1684108624609003300,7.773003173828125,3.1230154037475586,-4.913879871368408,-1.8127647638320923
1684108624619021000,7.78302099609375,3.1681621074676514,-5.454423427581787,-1.081195592880249
1684108624629038300,7.793038330078125,3.126354217529297,-5.506398677825928,-0.5596718192100525
1684108624639056100,7.80305615234375,2.960641384124756,-5.507530689239502,-0.1614738553762436
1684108624649074400,7.813074462890625,2.655268669128418,-5.473409652709961,0.14240986108779907
1684108624659091200,7.82309130859375,2.319831371307373,-5.454914093017578,0.3005123734474182
1684108624669109000,7.83310888671875,1.8909871578216553,-5.334915637969971,0.30452975630760193
1684108624679127300,7.843127197265625,1.3750903606414795,-5.080619812011719,0.10746465623378754
1684108624689144000,7.85314404296875,0.8568317294120789,-4.584033489227295,-0.30998799204826355
1684108624699162400,7.863162353515625,0.38988128304481506,-3.451356887817383,-1.0507566928863525
1684108624709180200,7.87318017578125,-0.034476932138204575,-2.207331657409668,-1.8453738689422607
1684108624719197200,7.883197265625,-0.4503474533557892,-1.364456057548523,-2.4245781898498535
1684108624729215200,7.89321533203125,-0.7336350679397583,-0.7707184553146362,-2.702463150024414
1684108624739233300,7.9032333984375,-0.8716031312942505,-0.14241141080856323,-2.765227794647217
1684108624749250000,7.91325,-0.844139814376831,0.48048919439315796,-2.5958497524261475
1684108624759268400,7.923268310546875,-0.7147748470306396,1.001146674156189,-2.282989025115967
1684108624769286100,7.9332861328125,-0.5443581342697144,1.3382498025894165,-1.9047499895095825
1684108624779303400,7.943303466796875,-0.4548259973526001,1.5833067893981934,-1.5600603818893433
1684108624789321200,7.9533212890625,-0.5172686576843262,1.8034335374832153,-1.2357637882232666
1684108624799339300,7.96333935546875,-0.6929983496665955,1.9349037408828735,-0.9194952845573425
1684108624809357000,7.973357177734375,-0.866237998008728,1.9756077527999878,-0.5786389112472534
1684108624819374300,7.983374267578125,-0.9099185466766357,2.0083141326904297,-0.17874176800251007
1684108624829392100,7.99339208984375,-0.8462655544281006,1.684869408607483,0.31580832600593567
1684108624839410400,8.003410400390624,-0.7515271902084351,0.5113205909729004,0.9872913360595703
1684108624849427200,8.01342724609375,-0.5619559288024902,-0.5328244566917419,1.502140760421753
1684108624859445200,8.0234453125,-0.31621724367141724,-0.9506246447563171,1.7458163499832153
1684108624869463300,8.03346337890625,-0.09774348884820938,-0.9239229559898376,1.7960630655288696
1684108624879480000,8.04347998046875,0.05620497837662697,-0.7359648942947388,1.6908891201019287
1684108624889498000,8.053498046875,0.13079214096069336,-0.5830624103546143,1.4740124940872192
1684108624899516200,8.06351611328125,0.16588173806667328,-0.5310403108596802,1.1765727996826172
1684108624909533200,8.073533203125,0.2106369584798813,-0.5971852540969849,0.7914654612541199
1684108624919551200,8.08355126953125,0.1892251819372177,-0.7423973679542542,0.18448695540428162
1684108624929569300,8.0935693359375,0.1993183046579361,-0.766610860824585,-0.42494654655456543
1684108624939586000,8.1035859375,0.39626502990722656,-0.6936371922492981,-0.7351806163787842
1684108624949604400,8.113604248046874,0.6451270580291748,-0.638803243637085,-0.878943145275116
1684108624959622100,8.1236220703125,0.7660217881202698,-0.6613152027130127,-0.9762907028198242
1684108624969639400,8.133639404296876,0.7255041599273682,-0.754158616065979,-1.0453739166259766
1684108624979657200,8.1436572265625,0.5582167506217957,-0.8837832808494568,-1.0747332572937012
1684108624989675300,8.15367529296875,0.35633528232574463,-0.9949012994766235,-1.053663969039917
1684108624999692300,8.1636923828125,0.20377029478549957,-1.0510592460632324,-0.9704987406730652
1684108625009710300,8.17371044921875,0.12238754332065582,-1.021213412284851,-0.8425069451332092
1684108625019728100,8.18372802734375,0.09907610714435577,-0.9041698575019836,-0.6862515807151794
1684108625029745200,8.1937451171875,0.0801791101694107,-0.7220101356506348,-0.5252323150634766
1684108625039763200,8.20376318359375,0.04595854505896568,-0.4968360960483551,-0.3528898060321808
1684108625049781200,8.21378125,0.006242559291422367,-0.5028204321861267,-0.11370623856782913
1684108625059799300,8.22379931640625,-0.0448736809194088,-1.2203404903411865,0.1940992772579193
1684108625069816000,8.233816162109376,-0.07374367117881775,-1.929827094078064,0.3064364492893219
1684108625079834000,8.243834228515626,-0.10075464099645615,-1.6918617486953735,0.12992404401302338
1684108625089852400,8.253852294921876,-0.15115948021411896,-0.8734593391418457,-0.1183057501912117
1684108625099869200,8.263869140625,-0.20345944166183472,0.06257812678813934,-0.27203860878944397
1684108625109887200,8.27388720703125,-0.2551298141479492,0.8452734351158142,-0.30054160952568054
1684108625119905300,8.2839052734375,-0.2995765805244446,1.372674584388733,-0.22729408740997314
1684108625129922000,8.293922119140625,-0.31137359142303467,1.618270754814148,-0.07700392603874207
1684108625139940400,8.3039404296875,-0.30214056372642517,1.6289103031158447,0.10999434441328049
1684108625149958100,8.313958251953125,-0.2685519754886627,1.5026047229766846,0.3042985796928406
1684108625159975200,8.32397509765625,-0.21868909895420074,1.3157894611358643,0.47295889258384705
1684108625169993200,8.3339931640625,-0.15661481022834778,1.0889954566955566,0.6006057858467102
1684108625180011300,8.34401123046875,-0.07707283645868301,0.8297162652015686,0.6839296221733093
1684108625190028300,8.3540283203125,-0.0036209882237017155,0.5778741836547852,0.7150137424468994
1684108625200046300,8.36404638671875,0.07233402878046036,0.39614197611808777,0.6935630440711975
1684108625210064100,8.374064208984375,0.14016632735729218,0.3078049123287201,0.6322306990623474
1684108625220081400,8.384081298828125,0.19176360964775085,0.2761748135089874,0.5474582314491272
1684108625230099200,8.39409912109375,0.24830012023448944,0.24155879020690918,0.4560156762599945
1684108625240117200,8.4041171875,0.31844601035118103,0.1762455701828003,0.3656272888183594
1684108625250134300,8.41413427734375,0.38820964097976685,0.0929778516292572,0.27353811264038086
1684108625260152000,8.424152099609374,0.4398931562900543,0.006197317503392696,0.18781711161136627
1684108625270170000,8.434170166015624,0.48156577348709106,-0.07378486543893814,0.09957566112279892
1684108625280187100,8.444187255859376,0.5139241218566895,-0.13373039662837982,0.004781886003911495
1684108625290205200,8.454205078125,0.5140538215637207,-0.20184899866580963,-0.0905667394399643
1684108625300223200,8.46422314453125,0.48390457034111023,-0.2675444781780243,-0.19883473217487335
1684108625310241300,8.4742412109375,0.42116209864616394,-0.32906028628349304,-0.31503164768218994
1684108625320258000,8.484258056640625,0.3378756642341614,-0.393197238445282,-0.4239130914211273
1684108625330276400,8.4942763671875,0.25122466683387756,-0.4138724207878113,-0.5069781541824341
1684108625340294100,8.504294189453125,0.17000773549079895,-0.3927884101867676,-0.5448585152626038
1684108625350311200,8.514311279296875,0.06781426817178726,-0.3398676812648773,-0.5275769829750061
1684108625360329200,8.5243291015625,-0.029825301840901375,-0.25041601061820984,-0.4944683611392975
1684108625370347300,8.53434716796875,-0.09024044126272202,-0.15133096277713776,-0.46662473678588867
1684108625380364300,8.5443642578125,-0.1243622750043869,-0.049195896834135056,-0.44348040223121643
1684108625390382300,8.55438232421875,-0.15903930366039276,0.06443905085325241,-0.42440977692604065
1684108625400400100,8.564400146484376,-0.1980145424604416,0.19453153014183044,-0.397208571434021
1684108625410417400,8.57441748046875,-0.2533094882965088,0.31628966331481934,-0.3563317060470581
1684108625420435200,8.584435302734375,-0.298633873462677,0.42890995740890503,-0.2911851704120636
1684108625430453200,8.594453369140625,-0.312980055809021,0.5383080840110779,-0.19341039657592773
1684108625440470300,8.60447021484375,-0.2843758165836334,0.6475979685783386,-0.06919410824775696
1684108625450488300,8.61448828125,-0.22861668467521667,0.726836085319519,0.06348750740289688
1684108625460506000,8.624506103515625,-0.1760411113500595,0.7525664567947388,0.1961921602487564
1684108625470523100,8.634523193359374,-0.15494434535503387,0.7101132869720459,0.3245903551578522
1684108625480541200,8.644541259765624,-0.18397213518619537,0.4057581424713135,0.48720818758010864
1684108625490559000,8.65455908203125,-0.21276570856571198,-0.20068733394145966,0.7120772004127502
1684108625500576300,8.664576171875,-0.162204310297966,-0.8376960158348083,0.9005297422409058
1684108625510594000,8.674593994140626,-0.0838509276509285,-1.1175827980041504,0.8678325414657593
1684108625520612400,8.6846123046875,-0.019553709775209427,-0.8756997585296631,0.5245588421821594
1684108625530629000,8.694629150390625,0.010326158255338669,-0.2636672556400299,0.015916908159852028
1684108625540647200,8.704647216796875,0.027164606377482414,0.3012411892414093,-0.3936278820037842
1684108625550665200,8.714665283203125,0.04434332996606827,0.5224654674530029,-0.5794550180435181
1684108625560683300,8.724683349609375,0.04125799983739853,0.40207380056381226,-0.5820302367210388
1684108625570700300,8.7347001953125,0.0012328177690505981,0.07834474742412567,-0.4591706097126007
1684108625580718300,8.74471826171875,-0.035317979753017426,-0.20376044511795044,-0.28407642245292664
1684108625590736100,8.754736083984374,-0.01301933079957962,-0.3040233850479126,-0.11123915761709213
1684108625600753400,8.76475341796875,0.0483197383582592,-0.23408018052577972,0.02210412174463272
1684108625610771200,8.774771240234376,0.08856915682554245,-0.0809958204627037,0.12672719359397888
1684108625620789200,8.784789306640626,0.0764184296131134,0.054573461413383484,0.2041863352060318
1684108625630806300,8.79480615234375,0.024776006117463112,0.10315457731485367,0.25545379519462585
1684108625640824300,8.80482421875,-0.03373084217309952,0.09088096022605896,0.2801118493080139
1684108625650842000,8.814842041015625,-0.03723209723830223,0.13054688274860382,0.28293558955192566
1684108625660859100,8.824859130859375,-0.016993926838040352,0.24734531342983246,0.2506454885005951
1684108625670877200,8.834877197265625,-0.0043822601437568665,0.3774455189704895,0.20009179413318634
1684108625680895200,8.844895263671875,0.009327473118901253,0.4590270221233368,0.15610437095165253
1684108625690912300,8.854912353515624,0.020354557782411575,0.4555545449256897,0.12691587209701538
1684108625700930000,8.864929931640624,0.005408098921179771,0.3677178919315338,0.12518614530563354
1684108625710948400,8.8749482421875,-0.022970812395215034,0.24558477103710175,0.13942207396030426
1684108625720965000,8.884965087890626,-0.05822610855102539,0.15417969226837158,0.1607457399368286
1684108625730983200,8.894983154296876,-0.07862538844347,0.1391834318637848,0.18493549525737762
1684108625741001200,8.905001220703125,-0.06689870357513428,0.21019990742206573,0.19703029096126556
1684108625751018200,8.915018310546875,-0.021262776106595993,0.2945941388607025,0.19395914673805237
1684108625761036000,8.9250361328125,0.03488878533244133,0.3280017077922821,0.1875639259815216
1684108625771054300,8.935054443359375,0.08332662284374237,0.2977500557899475,0.1941366046667099
1684108625781071000,8.945071044921875,0.11205864697694778,0.20244769752025604,0.2174505591392517
1684108625791089400,8.95508935546875,0.11730507761240005,0.05648436397314072,0.25634893774986267
1684108625801107200,8.965107177734374,0.10017110407352448,-0.100354865193367,0.29345738887786865
1684108625811124200,8.975124267578124,0.05783083662390709,-0.23788397014141083,0.3174343705177307
1684108625821142300,8.985142333984374,0.006338052451610565,-0.3194930851459503,0.29722777009010315
1684108625831160300,8.995160400390626,-0.029124600812792778,-0.28676947951316833,0.23211242258548737
1684108625841178000,9.00517822265625,-0.05576327443122864,-0.12840646505355835,0.12160901725292206
1684108625851195100,9.015195068359375,-0.07960202544927597,0.0824011042714119,0.020739398896694183
1684108625861213200,9.025213134765625,-0.10583445429801941,0.22732384502887726,-0.056927867233753204
1684108625871231200,9.035231201171875,-0.09936457127332687,0.2938370704650879,-0.09008155763149261
1684108625881248300,9.045248291015625,-0.051590368151664734,0.31791695952415466,-0.05551356077194214
1684108625891266000,9.05526611328125,-0.010354515165090561,0.2712559700012207,0.005801461637020111
1684108625901284000,9.0652841796875,0.03599108010530472,0.20454885065555573,0.08462467044591904
1684108625911301600,9.075301513671874,0.06435347348451614,0.11388977617025375,0.13620451092720032
1684108625921319700,9.085319580078124,0.06933625042438507,0.024432167410850525,0.15317368507385254
1684108625931337700,9.095337646484374,0.03961963206529617,-0.02728935144841671,0.15578918159008026
1684108625941354800,9.105354736328126,-0.008317706175148487,0.0023909490555524826,0.16349533200263977
1684108625951372500,9.11537255859375,-0.04876180365681648,0.10724013298749924,0.1776132881641388
1684108625961390800,9.125390869140626,-0.054735664278268814,0.26133421063423157,0.20148277282714844
1684108625971407600,9.13540771484375,-0.013758671469986439,0.4154132604598999,0.2330031543970108
1684108625981425700,9.14542578125,0.06718379259109497,0.5281461477279663,0.28921931982040405
1684108625991443700,9.155443603515625,0.1441933512687683,0.5708305239677429,0.36429837346076965
1684108626001460700,9.165460693359375,0.1833278387784958,0.5328010320663452,0.44388070702552795
1684108626011478800,9.175478759765625,0.17000778019428253,0.42201459407806396,0.4994717836380005
1684108626021496800,9.185496826171875,0.12387644499540329,0.2618194818496704,0.5246655344963074
1684108626031513600,9.195513671875,0.06942544877529144,0.10120585560798645,0.5050625205039978
1684108626041532000,9.205531982421874,0.020580613985657692,-0.003954293206334114,0.43704360723495483
1684108626051549700,9.2155498046875,-0.007410007994621992,-0.03381125628948212,0.32667768001556396
1684108626061566700,9.225566650390626,-0.014378458261489868,-0.011556379497051239,0.1879422813653946
1684108626071584800,9.235584716796875,0.015528041869401932,0.01941911317408085,0.03747527673840523
1684108626081602800,9.245602783203125,0.07056112587451935,0.018343284726142883,-0.1019081100821495
1684108626091619800,9.255619873046875,0.11501354724168777,-0.02638823539018631,-0.2154807448387146
1684108626101637600,9.2656376953125,0.1161360964179039,-0.11239758878946304,-0.3090645670890808
1684108626111655700,9.27565576171875,0.06734192371368408,-0.20744234323501587,-0.3693188726902008
1684108626121673700,9.285673828125,-0.007137636188417673,-0.2650209665298462,-0.3900310695171356
1684108626131690800,9.295690673828124,-0.07599073648452759,-0.2733108401298523,-0.387798547744751
1684108626141708500,9.30570849609375,-0.11746542900800705,-0.21011793613433838,-0.3627709448337555
1684108626151726800,9.315726806640624,-0.13428328931331635,-0.095295749604702,-0.3248882591724396
1684108626161743600,9.32574365234375,-0.1451188176870346,0.04784054309129715,-0.28668585419654846
1684108626171761700,9.33576171875,-0.1361927092075348,0.1923053115606308,-0.23404473066329956
1684108626181779700,9.34577978515625,-0.1094948872923851,0.31702175736427307,-0.17112518846988678
1684108626191796700,9.355796630859375,-0.06751520931720734,0.395513653755188,-0.09028173983097076
1684108626201814500,9.365814453125,-0.011617212556302547,0.4088500440120697,-0.0055769821628928185
1684108626211832800,9.375832763671875,0.040539465844631195,0.3488905727863312,0.07756024599075317
1684108626221849600,9.385849609375,0.08571019768714905,0.24247385561466217,0.14555498957633972
1684108626231868000,9.395867919921875,0.14264965057373047,0.11803632974624634,0.18373486399650574
1684108626241885700,9.4058857421875,0.2052168846130371,-0.022293269634246826,0.19109907746315002
1684108626251902700,9.41590283203125,0.2557375729084015,-0.1779281347990036,0.17533183097839355
1684108626261920800,9.425920654296876,0.28547540307044983,-0.3494611084461212,0.13411304354667664
1684108626271938800,9.435938720703126,0.28995296359062195,-0.5251956582069397,0.07993421703577042
1684108626281955800,9.445955810546875,0.2711584270000458,-0.6716967821121216,0.019422268494963646
1684108626291974000,9.455973876953125,0.2419920116662979,-0.7653345465660095,-0.03240843862295151
1684108626301991700,9.46599169921875,0.20744062960147858,-0.7790537476539612,-0.07208626717329025
1684108626312008700,9.4760087890625,0.17264004051685333,-0.7158907651901245,-0.08841783553361893
1684108626322026800,9.48602685546875,0.13755977153778076,-0.5895233154296875,-0.09297025948762894
1684108626332044500,9.49604443359375,0.07170618325471878,-0.4251711368560791,-0.10504796355962753
1684108626342061800,9.506061767578124,-0.0070765577256679535,-0.2686857283115387,-0.14638957381248474
1684108626352079600,9.51607958984375,-0.0674980878829956,-0.14711110293865204,-0.2115347534418106
1684108626362097700,9.52609765625,-0.09129174053668976,-0.08336443454027176,-0.2905704081058502
1684108626372114700,9.53611474609375,-0.09318152070045471,-0.0535263754427433,-0.3623806834220886
1684108626382132700,9.5461328125,-0.0966581255197525,-0.03671091049909592,-0.4060572683811188
1684108626392150500,9.556150634765626,-0.12866319715976715,-0.004711695946753025,-0.42601898312568665
1684108626402167800,9.566167724609375,-0.18652410805225372,0.05298124998807907,-0.418910413980484
1684108626412185600,9.576185546875,-0.24803167581558228,0.15412810444831848,-0.38658469915390015
1684108626422204000,9.586203857421875,-0.29283469915390015,0.2798635959625244,-0.33099663257598877
1684108626432220700,9.596220703125,-0.2984446585178375,0.4103209376335144,-0.2471129298210144
1684108626442238700,9.60623876953125,-0.2718888223171234,0.5303792357444763,-0.14795003831386566
1684108626452256800,9.6162568359375,-0.2271903157234192,0.6136338710784912,-0.04827003926038742
1684108626462274800,9.62627490234375,-0.19498196244239807,0.6515952944755554,0.04407419636845589
1684108626472291600,9.63629150390625,-0.17162097990512848,0.6285017132759094,0.12829533219337463
1684108626482310000,9.646309814453126,-0.1653357595205307,0.45708417892456055,0.23103466629981995
1684108626492327700,9.65632763671875,-0.14700229465961456,0.09613077342510223,0.3691885471343994
1684108626502344700,9.6663447265625,-0.10010461509227753,-0.31596171855926514,0.50780189037323
1684108626512362800,9.67636279296875,-0.03605559468269348,-0.5879136323928833,0.590889036655426
1684108626522380800,9.686380859375,0.021731365472078323,-0.6328397989273071,0.5726211667060852
1684108626532397800,9.696397705078125,0.07943221181631088,-0.4704759418964386,0.43056759238243103
1684108626542415600,9.70641552734375,0.12282608449459076,-0.1792009472846985,0.1868308037519455
1684108626552433700,9.71643359375,0.13955500721931458,0.12780959904193878,-0.10308542847633362
1684108626562450700,9.72645068359375,0.12923584878444672,0.2878352403640747,-0.3304341733455658
1684108626572468700,9.73646875,0.09841027855873108,0.24986810982227325,-0.44451335072517395
1684108626582486500,9.746486572265624,0.06382341682910919,0.06974957883358002,-0.4542287290096283
1684108626592503800,9.75650390625,0.01061105914413929,-0.13170230388641357,-0.3925187587738037
1684108626602521600,9.766521484375,-0.035071972757577896,-0.22731804847717285,-0.29959535598754883
1684108626612539600,9.77653955078125,-0.05863881856203079,-0.18647500872612,-0.2044941484928131
1684108626622556700,9.786556640625,-0.0590529628098011,-0.04177464172244072,-0.13032419979572296
1684108626632574700,9.79657470703125,-0.033858392387628555,0.12866048514842987,-0.0684099793434143
1684108626642592800,9.8065927734375,-0.0018653295701369643,0.25092053413391113,-0.01721380278468132
1684108626652609800,9.81660986328125,0.028790317475795746,0.2938371002674103,0.030343063175678253
1684108626662627600,9.826627685546875,0.055516019463539124,0.25091367959976196,0.07127012312412262
1684108626672646000,9.83664599609375,0.09276458621025085,0.16544006764888763,0.09472991526126862
1684108626682662700,9.84666259765625,0.12019699811935425,0.09106498211622238,0.08928114175796509
1684108626692680700,9.8566806640625,0.12509481608867645,0.05657225102186203,0.04455094784498215
1684108626702698800,9.86669873046875,0.1119169369339943,0.048615965992212296,-0.016873164102435112
1684108626712715500,9.876715576171875,0.11072970181703568,0.05509064346551895,-0.06802183389663696
1684108626722733800,9.88673388671875,0.1335783749818802,0.04275284335017204,-0.09513720124959946
1684108626732751600,9.896751708984375,0.14713600277900696,0.01991916447877884,-0.10758987814188004
1684108626742768600,9.9067685546875,0.136575385928154,-0.020156078040599823,-0.09035170823335648
1684108626752786700,9.91678662109375,0.10430239886045456,-0.06064704433083534,-0.0679212361574173
1684108626762804700,9.9268046875,0.07190033048391342,-0.08276797086000443,-0.03908519074320793
1684108626772821800,9.93682177734375,0.03233800828456879,-0.07883501797914505,-0.010567529127001762
1684108626782839800,9.94683984375,-0.0035045405384153128,-0.05868464708328247,0.011080882512032986
1684108626792857600,9.956857666015624,-0.034368179738521576,-0.021753527224063873,0.038962580263614655
1684108626802875000,9.966875,-0.050481103360652924,0.005787817761301994,0.067423515021801
1684108626812892700,9.976892578125,-0.0695064589381218,-0.0036139395087957382,0.09200902283191681
1684108626822910700,9.98691064453125,-0.09921523183584213,-0.03412692993879318,0.09790968149900436
1684108626832927700,9.996927734375,-0.11968721449375153,-0.05266865715384483,0.07982708513736725
1684108626842945800,10.00694580078125,-0.11654514074325562,-0.030031874775886536,0.03767368942499161
1684108626852963600,10.016963623046875,-0.1024455651640892,0.030335061252117157,-0.008918046951293945
1684108626862982000,10.02698193359375,-0.09023309499025345,0.10567651689052582,-0.050673048943281174
1684108626872998700,10.03699853515625,-0.07898656278848648,0.16373075544834137,-0.0644644945859909
1684108626883016700,10.0470166015625,-0.04069558531045914,0.1835429072380066,-0.05836983397603035
1684108626893034800,10.05703466796875,0.01958506554365158,0.14364954829216003,-0.018851183354854584
1684108626903051300,10.06705126953125,0.06981361657381058,0.045154131948947906,0.03220400959253311
1684108626913069300,10.0770693359375,0.08066466450691223,-0.07164306193590164,0.07726655900478363
1684108626923087400,10.08708740234375,0.0578116774559021,-0.15369832515716553,0.10252679884433746
1684108626933104400,10.0971044921875,0.02891983836889267,-0.16751614212989807,0.10344798862934113
1684108626943122400,10.107122314453125,0.014639112167060375,-0.13257867097854614,0.07713598757982254
1684108626953140200,10.11714013671875,0.008465372025966644,-0.06493756920099258,0.037560880184173584
1684108626963157500,10.127157470703125,0.004125751554965973,0.003968791104853153,-0.0014501677360385656
1684108626973175300,10.13717529296875,-0.0015132254920899868,0.07080427557229996,-0.02966342866420746
1684108626983193300,10.147193359375,-0.007361677475273609,0.11880402266979218,-0.035078492015600204
1684108626993210400,10.15721044921875,-0.014845958910882473,0.14124462008476257,-0.016419321298599243
1684108627003228400,10.167228515625,-0.010987038724124432,0.118461012840271,0.01688510552048683
1684108627013246200,10.17724609375,0.00095990183763206,0.055200811475515366,0.053851112723350525
1684108627023263500,10.187263427734376,0.008606924675405025,-0.03222481161355972,0.09748610854148865
1684108627033281300,10.19728125,0.0012464807368814945,-0.11006607860326767,0.12281010299921036
1684108627043299300,10.20729931640625,-0.006102337967604399,-0.1267760843038559,0.10039498656988144
1684108627053316400,10.21731640625,0.023912552744150162,0.035628803074359894,-0.011247917078435421
1684108627063334100,10.227334228515625,0.3375293016433716,1.0671015977859497,-0.6493082046508789
1684108627073352400,10.2373525390625,0.3074265420436859,0.714779794216156,-0.9435057640075684
1684108627083369200,10.247369140625,0.27123957872390747,0.13055096566677094,-1.182755947113037
1684108627093387300,10.25738720703125,0.308326780796051,-0.39668357372283936,-1.4162068367004395
1684108627103405300,10.2674052734375,0.23071368038654327,-0.8035047650337219,-1.5680407285690308
1684108627113422300,10.27742236328125,0.12602880597114563,-1.0669084787368774,-1.597977638244629
1684108627123440400,10.2874404296875,0.05499967560172081,-1.1288821697235107,-1.490071177482605
1684108627133458400,10.29745849609375,-0.009310070425271988,-0.986464262008667,-1.2584221363067627
1684108627143475200,10.30747509765625,-0.07283269613981247,-0.7045107483863831,-0.9320003390312195
1684108627153493500,10.317493408203125,-0.11070151627063751,-0.38848406076431274,-0.5709417462348938
1684108627163511300,10.32751123046875,-0.11268352717161179,-0.13011398911476135,-0.24123719334602356
1684108627173528300,10.3375283203125,-0.11597892642021179,0.021370867267251015,0.02160882204771042
1684108627183546400,10.34754638671875,-0.11203533411026001,0.07527315616607666,0.2294020652770996
1684108627193564400,10.357564453125,-0.1000569686293602,0.07449071854352951,0.3923473060131073
1684108627203581400,10.36758154296875,-0.08781218528747559,0.042770154774188995,0.5200040936470032
1684108627213599500,10.377599609375,-0.054301097989082336,0.016790486872196198,0.6172922849655151
1684108627223617300,10.3876171875,-0.01590362749993801,0.008298112079501152,0.6879749298095703
1684108627233635300,10.39763525390625,0.0011491251643747091,0.006936171092092991,0.7650265693664551
1684108627243652400,10.40765234375,0.014222954399883747,0.042397309094667435,0.8121024370193481
1684108627253670400,10.41767041015625,0.00957999937236309,0.051366038620471954,0.8294260501861572
1684108627263688400,10.4276884765625,0.0008372224401682615,-0.0005194325931370258,0.834971010684967
1684108627273705200,10.437705322265625,0.0024849199689924717,-0.0928213968873024,0.8341294527053833
1684108627283723300,10.44772314453125,0.022334907203912735,-0.1903546154499054,0.8070085644721985
1684108627293741300,10.4577412109375,0.04179089888930321,-0.2622344195842743,0.751538097858429
1684108627303758300,10.46775830078125,0.03860023245215416,-0.3095782995223999,0.6571486592292786
1684108627313776000,10.477776123046874,0.016066428273916245,-0.3151025176048279,0.5305368900299072
1684108627323794400,10.48779443359375,-0.014125238172709942,-0.2537935972213745,0.3610394597053528
1684108627333811200,10.497811279296876,-0.04519687220454216,-0.12124114483594894,0.13007310032844543
1684108627343829500,10.50782958984375,-0.06942327320575714,0.004401280544698238,-0.11786054819822311
1684108627353847300,10.517847412109376,-0.06820087879896164,0.028705820441246033,-0.3227183520793915
1684108627363864300,10.5278642578125,-0.04209556430578232,-0.08631725609302521,-0.4488358199596405
1684108627373882400,10.53788232421875,-0.0029324470087885857,-0.2714410424232483,-0.5057768821716309
1684108627383900400,10.547900390625,0.03279314190149307,-0.42027971148490906,-0.5136479735374451
1684108627393917400,10.55791748046875,0.054170869290828705,-0.4767776131629944,-0.48996394872665405
1684108627403935500,10.567935546875,0.06335914134979248,-0.42709463834762573,-0.4490782916545868
1684108627413953300,10.577953369140625,0.06926336884498596,-0.2805637717247009,-0.380840927362442
1684108627423970300,10.58797021484375,0.08171721547842026,-0.09858421981334686,-0.2854275703430176
1684108627433988400,10.59798828125,0.0859425887465477,0.05886106938123703,-0.16898803412914276
1684108627444006400,10.60800634765625,0.06303136795759201,0.1473337560892105,-0.03280150145292282
1684108627454023400,10.6180234375,0.025330061092972755,0.16184131801128387,0.104010671377182
1684108627464041200,10.628041259765626,0.0033664845395833254,0.13247165083885193,0.23597091436386108
1684108627474059300,10.638059326171875,-0.008929596282541752,0.10114700347185135,0.33633771538734436
1684108627484076300,10.648076171875,-0.004605225287377834,0.08541446924209595,0.3842507600784302
1684108627494094300,10.65809423828125,0.015880342572927475,0.09587589651346207,0.37560585141181946
1684108627504112000,10.668112060546875,0.030562547966837883,0.16002275049686432,0.2879471778869629
1684108627514129400,10.67812939453125,0.045440029352903366,0.2741687595844269,0.15018825232982635
1684108627524147200,10.688147216796875,0.09305965155363083,0.3634982109069824,0.006194022484123707
1684108627534165500,10.69816552734375,0.14550581574440002,0.3594890832901001,-0.11171716451644897
1684108627544182300,10.708182373046874,0.18181830644607544,0.24006955325603485,-0.20116832852363586
1684108627554200300,10.718200439453126,0.17500993609428406,0.055442988872528076,-0.2611411213874817
1684108627564218400,10.72821826171875,0.14689913392066956,-0.1418694704771042,-0.29311785101890564
1684108627574235400,10.7382353515625,0.11917455494403839,-0.3013131618499756,-0.28941473364830017
1684108627584253200,10.748253173828125,0.10571523010730743,-0.3837510645389557,-0.22163450717926025
1684108627594271500,10.758271484375,0.0841878280043602,-0.383055180311203,-0.11149042844772339
1684108627604289300,10.768289306640625,0.022667592391371727,-0.29031237959861755,0.02337043546140194
1684108627614306600,10.778306640625,-0.07587523013353348,-0.11273705214262009,0.14833927154541016
1684108627624324400,10.788324462890625,-0.1757921427488327,0.09939198195934296,0.23733660578727722
1684108627634342400,10.79834228515625,-0.23942410945892334,0.2557709217071533,0.26203423738479614
1684108627644359400,10.808359375,-0.24996031820774078,0.271418958902359,0.24870645999908447
1684108627654377200,10.818377197265624,-0.1925676017999649,0.11165378987789154,0.20892177522182465
1684108627664395300,10.828395263671876,-0.0833992063999176,-0.13927528262138367,0.13954293727874756
1684108627674412300,10.838412353515626,0.029028797522187233,-0.34744498133659363,0.012324540875852108
1684108627684430300,10.848430419921876,0.12251996248960495,-0.44941264390945435,-0.15836508572101593
1684108627694448000,10.8584482421875,0.16491535305976868,-0.44199734926223755,-0.3152034282684326
1684108627704465400,10.86846533203125,0.16392646729946136,-0.3466930091381073,-0.4164067804813385
1684108627714483200,10.878483154296875,0.12101868540048599,-0.23723706603050232,-0.4514177441596985
1684108627724501200,10.888501220703125,0.06273020058870316,-0.1388055831193924,-0.39740464091300964
1684108627734518300,10.898518310546875,0.008249911479651928,-0.06573669612407684,-0.2816069424152374
1684108627744536300,10.908536376953125,-0.05465302616357803,-0.05554141104221344,-0.1298268437385559
1684108627754554400,10.918554443359374,-0.1288740038871765,-0.0828675702214241,0.02499389834702015
1684108627764571400,10.9285712890625,-0.19299641251564026,-0.08772578835487366,0.15160833299160004
1684108627774589200,10.938589111328126,-0.2260638177394867,-0.04322676733136177,0.2300024777650833
1684108627784607500,10.948607421875,-0.22459019720554352,0.03224650025367737,0.28014421463012695
1684108627794624300,10.958624267578125,-0.20704048871994019,0.10471590608358383,0.30825361609458923
1684108627804642600,10.968642578125,-0.1779918223619461,0.14074331521987915,0.3202112913131714
1684108627814660400,10.978660400390625,-0.13024373352527618,0.13083715736865997,0.31984081864356995
1684108627824677000,10.988677001953125,-0.07290510088205338,0.11203712224960327,0.31936830282211304
1684108627834695400,10.9986953125,-0.04231417551636696,0.15558059513568878,0.29856500029563904
1684108627844713500,11.00871337890625,-0.02411048300564289,0.3150455355644226,0.2877228856086731
1684108627854730200,11.018730224609374,0.001942689181305468,0.49350953102111816,0.2880781292915344
1684108627864748300,11.028748291015624,-0.019511794671416283,0.5502071976661682,0.27747052907943726
1684108627874766300,11.038766357421874,-0.04771813005208969,0.513020932674408,0.2651725709438324
1684108627884784000,11.0487841796875,-0.05561200901865959,0.44303491711616516,0.26762643456459045
1684108627894801400,11.058801513671876,-0.04163387417793274,0.39666128158569336,0.27102380990982056
1684108627904819500,11.0688193359375,-0.019054343923926353,0.3747130334377289,0.2764751613140106
1684108627914837500,11.07883740234375,-0.008511155843734741,0.37534233927726746,0.27339017391204834
1684108627924854500,11.0888544921875,-0.0017262203618884087,0.3757982552051544,0.2598740756511688
1684108627934872600,11.09887255859375,0.002650684677064419,0.35296645760536194,0.23853708803653717
1684108627944890600,11.108890625,0.00426591606810689,0.2882809340953827,0.21680821478366852
1684108627954907600,11.11890771484375,0.0006283045513555408,0.1965094655752182,0.19512157142162323
1684108627964925400,11.128925537109374,-0.0004424606158863753,0.10128388553857803,0.17791256308555603
1684108627974943700,11.13894384765625,0.0024265628308057785,0.02130596525967121,0.16055834293365479
1684108627984960500,11.14896044921875,-0.010504381731152534,-0.026270069181919098,0.14007289707660675
1684108627994978600,11.158978515625,-0.037415094673633575,-0.03646358475089073,0.11811460554599762
1684108628004996600,11.16899658203125,-0.07248041778802872,-0.003350465092808008,0.09561126679182053
1684108628015013600,11.179013671875,-0.11739196628332138,0.04326283931732178,0.06863610446453094
1684108628025031700,11.18903173828125,-0.15953609347343445,0.09427764266729355,0.03363775089383125
1684108628035049700,11.1990498046875,-0.1702670305967331,0.14127498865127563,-0.003140239277854562
1684108628045066500,11.20906640625,-0.14666986465454102,0.19581696391105652,-0.02643066830933094
1684108628055084800,11.219084716796875,-0.099140964448452,0.25822335481643677,-0.03847081959247589
1684108628065102600,11.2291025390625,-0.06130436435341835,0.3175928592681885,-0.03949645161628723
1684108628075119600,11.23911962890625,-0.02736796997487545,0.35256680846214294,-0.022168593481183052
1684108628085137700,11.2491376953125,-0.008725447580218315,0.35077041387557983,0.004075418226420879
1684108628095155500,11.259155517578124,-0.008649547584354877,0.32684725522994995,0.03328683227300644
1684108628105172700,11.2691728515625,-0.012109607458114624,0.2940780222415924,0.05901069939136505
1684108628115190500,11.2791904296875,-0.015380501747131348,0.24732089042663574,0.080738365650177
1684108628125208600,11.28920849609375,-0.005411687772721052,0.19598546624183655,0.08155720680952072
1684108628135226400,11.299226318359375,0.030377734452486038,0.11935325711965561,0.07011493295431137
1684108628145243600,11.30924365234375,0.08104296028614044,0.016262207180261612,0.04800283908843994
1684108628155261400,11.319261474609375,0.13885726034641266,-0.11205555498600006,0.025466637685894966
1684108628165279700,11.32927978515625,0.18690983951091766,-0.24599266052246094,0.005261807236820459
1684108628175296500,11.339296630859375,0.23005305230617523,-0.3706477880477905,-0.009168530814349651
1684108628185314600,11.349314453125,0.25413087010383606,-0.4578370153903961,-0.013348065316677094
1684108628195332600,11.35933251953125,0.2447403222322464,-0.49055927991867065,-0.017994748428463936
1684108628205349600,11.369349609375,0.21039655804634094,-0.4561995267868042,-0.022527677938342094
1684108628215367700,11.37936767578125,0.1423807591199875,-0.37629270553588867,-0.04078178480267525
1684108628225385700,11.3893857421875,0.04919815808534622,-0.2818451225757599,-0.07781178504228592
1684108628235402500,11.399402587890625,-0.08205521106719971,0.1679454892873764,0.022290315479040146
1684108628245420800,11.4094208984375,-0.29445987939834595,0.7881490588188171,0.25031521916389465
1684108628255438600,11.4194384765625,-3.2858803272247314,5.690816402435303,3.0156214237213135
1684108628265455400,11.429455322265625,-4.55991268157959,4.568269729614258,3.2241737842559814
1684108628275473700,11.4394736328125,-3.4802823066711426,2.7128071784973145,2.436852216720581
1684108628285491700,11.44949169921875,-3.8741233348846436,4.109486103057861,3.002389669418335
1684108628295508700,11.4595087890625,-3.059612512588501,3.2967817783355713,2.3678948879241943
1684108628305526500,11.469526611328124,-2.8424293994903564,4.272402286529541,2.3373074531555176
1684108628315544600,11.479544677734374,-2.407362937927246,4.406244277954102,1.7864941358566284
1684108628325561600,11.4895615234375,-2.2640461921691895,4.971671104431152,1.3058700561523438
1684108628335579600,11.49957958984375,-2.0346319675445557,5.41253662109375,0.6741237044334412
1684108628345597400,11.509597412109375,-1.7743974924087524,5.876114845275879,0.026094187051057816
1684108628355614700,11.51961474609375,-1.5358469486236572,6.24092960357666,-0.6164807677268982
1684108628365632500,11.529632568359375,-1.2999085187911987,5.985117435455322,-1.4191272258758545
1684108628375650600,11.539650634765625,-0.373491108417511,4.338969707489014,-2.740840196609497
1684108628385667600,11.54966748046875,1.2808194160461426,1.3737328052520752,-3.6658263206481934
1684108628395685600,11.559685546875,2.803908348083496,-2.3821821212768555,-2.969489097595215
1684108628405703400,11.569703369140624,3.036012887954712,-4.728525638580322,-1.6912763118743896
1684108628415721700,11.5797216796875,2.575104236602783,-5.550788879394531,-0.8782854080200195
1684108628425738500,11.589738525390626,3.069153070449829,-5.652207374572754,-0.3143137991428375
1684108628435756800,11.5997568359375,3.3341240882873535,-5.406181812286377,0.1716552972793579
1684108628445774600,11.609774658203126,3.269960403442383,-4.982700824737549,0.6054549813270569
1684108628455791400,11.619791259765625,3.0332112312316895,-4.620090961456299,0.9200182557106018
1684108628465809700,11.6298095703125,2.6684000492095947,-4.293613433837891,1.1031440496444702
1684108628475827700,11.63982763671875,2.2301182746887207,-4.011470317840576,1.0698423385620117
1684108628485844700,11.6498447265625,1.7585562467575073,-3.6728203296661377,0.828671395778656
1684108628495862500,11.659862548828125,1.3241466283798218,-2.9769225120544434,0.3198646008968353
1684108628505880600,11.669880615234375,0.9307540059089661,-1.6873496770858765,-0.42149463295936584
1684108628515897600,11.679897705078124,0.5037816762924194,-0.6646525263786316,-1.2762094736099243
1684108628525915600,11.68991552734375,-0.012360651046037674,-0.33818569779396057,-2.0549919605255127
1684108628535933400,11.699933349609376,-0.5702899694442749,-0.393257737159729,-2.618826150894165
1684108628545950700,11.70995068359375,-1.0080678462982178,-0.4018426239490509,-2.9744415283203125
1684108628555968500,11.719968505859375,-1.2415897846221924,-0.3466150462627411,-3.147660970687866
1684108628565986600,11.729986572265625,-1.2442725896835327,-0.3281489610671997,-3.1680471897125244
1684108628576003600,11.740003662109375,-1.0583319664001465,-0.42393195629119873,-3.0628795623779297
1684108628586021600,11.750021728515625,-0.7715240716934204,-0.47971081733703613,-2.8406195640563965
1684108628596039400,11.760039306640625,-0.5393310189247131,-0.49770551919937134,-2.550436496734619
1684108628606056700,11.770056640625,-0.4002850651741028,-0.465631365776062,-2.2008867263793945
1684108628616074500,11.780074462890624,-0.38311806321144104,-0.44736820459365845,-1.7934154272079468
1684108628626092800,11.7900927734375,-0.5079314708709717,-0.47759437561035156,-1.33529531955719
1684108628636109600,11.800109619140626,-0.6812558174133301,-0.4589746296405792,-0.8410494923591614
1684108628646127600,11.810127685546876,-0.8577470183372498,-0.3526228070259094,-0.3388717770576477
1684108628656145700,11.820145751953126,-0.9284757375717163,-0.2484859973192215,0.16644251346588135
1684108628666162400,11.830162353515625,-0.9040447473526001,-0.1320616602897644,0.6472876667976379
1684108628676180500,11.840180419921875,-0.7849391102790833,0.006551613099873066,1.1034467220306396
1684108628686198500,11.850198486328125,-0.5666860938072205,0.09743563085794449,1.5173786878585815
1684108628696216600,11.860216552734375,-0.298357754945755,0.00145743228495121,1.8922449350357056
1684108628706233600,11.870233642578125,-0.07516881823539734,-0.3672448992729187,2.2497284412384033
1684108628716251600,11.880251708984375,0.010595091618597507,-0.8311278820037842,2.5265073776245117
1684108628726269400,11.89026953125,-0.022767242044210434,-1.0627882480621338,2.5760884284973145
1684108628736286700,11.90028662109375,-0.077776700258255,-1.613383412361145,1.9846901893615723
1684108628746304500,11.910304443359376,-0.12761302292346954,-1.717881441116333,-0.0918334573507309
1684108628756322600,11.920322509765626,-0.04954005777835846,-0.7622382640838623,-1.7131097316741943
1684108628766339600,11.930339599609376,0.20581375062465668,0.3218594193458557,-2.0540871620178223
1684108628776357600,11.940357666015625,0.43700170516967773,1.1035404205322266,-1.7816838026046753
1684108628786375400,11.95037548828125,0.5503688454627991,1.4880709648132324,-1.4155807495117188
1684108628796392700,11.960392822265625,0.5331219434738159,1.480761170387268,-1.0713077783584595
1684108628806410500,11.970410400390625,0.4536343514919281,1.2028132677078247,-0.7292466759681702
1684108628816428500,11.980428466796875,0.3916551470756531,0.8321027755737305,-0.3521156311035156
1684108628826445600,11.990445556640625,0.4021884799003601,0.4838126003742218,0.0033887664321810007
1684108628836463600,12.000463623046874,0.4648556113243103,0.17291787266731262,0.3075617253780365
1684108628846481700,12.010481689453124,0.5353935956954956,-0.12726539373397827,0.5466156005859375
1684108628856498400,12.02049853515625,0.5751639008522034,-0.4242320954799652,0.7140213847160339
1684108628866516500,12.0305166015625,0.5685374140739441,-0.7035156488418579,0.8081604242324829
1684108628876534800,12.04053466796875,0.529904842376709,-0.9517302513122559,0.8339661955833435
1684108628886552600,12.050552490234375,0.49836835265159607,-1.1633834838867188,0.80562824010849
1684108628896569600,12.060569580078125,0.4847526550292969,-1.3237029314041138,0.7328645586967468
1684108628906586600,12.070586669921875,0.5091210007667542,-1.3994412422180176,0.6378150582313538
1684108628916604700,12.080604736328125,0.5565425753593445,-1.3596948385238647,0.5463021397590637
1684108628926621700,12.09062158203125,0.581789493560791,-1.150260090827942,0.4807216227054596
1684108628936639700,12.1006396484375,0.5735539197921753,-0.8051197528839111,0.4351022243499756
1684108628946657500,12.110657470703124,0.5074494481086731,-0.3410099148750305,0.3893905282020569
1684108628956674800,12.1206748046875,0.3579302132129669,0.18660731613636017,0.3363017439842224
1684108628966692600,12.130692626953126,0.13950428366661072,0.6921551823616028,0.2698138356208801
1684108628976711000,12.1407109375,-0.0912247970700264,1.1210987567901611,0.19244076311588287
1684108628986727700,12.150727783203125,-0.2568867802619934,1.3886200189590454,0.1250218152999878
1684108628996745700,12.160745849609375,-0.3423100709915161,1.4523396492004395,0.07578103244304657
1684108629006763800,12.170763671875,-0.35988694429397583,1.3502322435379028,0.049329761415719986
1684108629016780800,12.18078076171875,-0.3339533507823944,1.1752582788467407,0.05423956736922264
1684108629026798800,12.190798828125,-0.28814783692359924,0.9638820290565491,0.07084968686103821
1684108629036817000,12.20081689453125,-0.266912579536438,0.6389905214309692,0.1281057745218277
1684108629046833700,12.210833740234374,-0.2943490445613861,0.056085698306560516,0.26154327392578125
1684108629056852000,12.22085205078125,-0.3081013262271881,-0.5933002829551697,0.4199390411376953
1684108629066869800,12.230869873046874,-0.2509932219982147,-0.8898621201515198,0.4440791606903076
1684108629076886500,12.240886474609376,-0.14851078391075134,-0.7577890157699585,0.28336963057518005
1684108629086904800,12.25090478515625,-0.049781180918216705,-0.4440406560897827,0.011956866830587387
1684108629096923000,12.2609228515625,0.02228555642068386,-0.18898387253284454,-0.24000506103038788
1684108629106940000,12.27093994140625,0.05888015776872635,-0.08426803350448608,-0.422880619764328
1684108629116957700,12.280957763671875,0.0626610517501831,-0.10392376035451889,-0.5281609296798706
1684108629126975700,12.290975830078125,0.10730692744255066,-0.19920207560062408,-0.5902915000915527
1684108629136993500,12.30099365234375,0.1777200996875763,-0.3362664580345154,-0.6195061206817627
1684108629147010800,12.3110107421875,0.21348345279693604,-0.502427875995636,-0.6363161206245422
1684108629157028600,12.321028564453124,0.1811625361442566,-0.6720214486122131,-0.6415337324142456
1684108629167047000,12.331046875,0.10313419252634048,-0.7956507205963135,-0.6374963521957397
1684108629177063700,12.341063720703126,0.05411152541637421,-0.81795334815979,-0.6150035858154297
1684108629187081700,12.351081787109376,0.048095837235450745,-0.7572895884513855,-0.5800856351852417
1684108629197099800,12.361099853515626,0.03725837171077728,-0.6473082304000854,-0.5463361740112305
1684108629207116800,12.37111669921875,-0.006506548263132572,-0.49023833870887756,-0.49836617708206177
1684108629217134600,12.381134521484375,-0.05660220608115196,-0.28487640619277954,-0.4314499795436859
1684108629227153000,12.39115283203125,-0.10728871822357178,-0.052544549107551575,-0.3291819393634796
1684108629237169700,12.401169677734375,-0.1549569070339203,0.19431103765964508,-0.21963468194007874
1684108629247188000,12.41118798828125,-0.19339080154895782,0.43151313066482544,-0.08663686364889145
1684108629257205800,12.421205810546875,-0.22279930114746094,0.6459193825721741,0.05597167834639549
1684108629267222500,12.431222412109374,-0.2144286036491394,0.8288078308105469,0.2106240838766098
1684108629277240800,12.44124072265625,-0.166490375995636,0.9593205451965332,0.37404686212539673
