time,seconds_elapsed,z,y,x
1684108454251294000,0.0212939453125,-0.3493157923221588,-0.2780478298664093,0.18233302235603333
1684108454261312000,0.03131201171875,-0.38292643427848816,-0.3347152769565582,0.3126940131187439
1684108454271329000,0.0413291015625,-0.38403668999671936,-0.312799334526062,0.4447956085205078
1684108454281347000,0.05134716796875,-0.3621162474155426,-0.2028014361858368,0.5786701440811157
1684108454291363800,0.06136376953125,-0.33841463923454285,-0.07381869852542877,0.6839470267295837
1684108454301382100,0.071382080078125,-0.3236403167247772,0.04257244989275932,0.7492715120315552
1684108454311399000,0.08139892578125,-0.3227095305919647,0.13010762631893158,0.7757158875465393
1684108454321417200,0.091417236328125,-0.344961941242218,0.18783190846443176,0.7646485567092896
1684108454331435000,0.10143505859375,-0.3875885009765625,0.21779726445674896,0.7172847986221313
1684108454341452000,0.1114521484375,-0.41127824783325195,0.20468714833259583,0.6599714159965515
1684108454351470000,0.121469970703125,-0.41896575689315796,0.18188169598579407,0.5975099205970764
1684108454361486800,0.13148681640625,-0.4035870134830475,0.15478456020355225,0.5412096977233887
1684108454371505000,0.1415048828125,-0.3842330276966095,0.09546957165002823,0.5132100582122803
1684108454381522000,0.15152197265625,-0.3643883764743805,0.030184756964445114,0.5103691816329956
1684108454391540000,0.1615400390625,-0.32494083046913147,0.04386035352945328,0.5321207642555237
1684108454401557000,0.171556884765625,-0.29233139753341675,0.1395358443260193,0.5705265998840332
1684108454411575000,0.181574951171875,-0.2983839511871338,0.197765052318573,0.6409876942634583
1684108454421592800,0.1915927734375,-0.33950626850128174,0.25611793994903564,0.7143267393112183
1684108454431610000,0.201610107421875,-0.3952963054180145,0.309100478887558,0.7878401279449463
1684108454441628000,0.2116279296875,-0.4466732442378998,0.31048583984375,0.842360258102417
1684108454451645000,0.22164501953125,-0.45418840646743774,0.26651251316070557,0.8799129724502563
1684108454461663000,0.2316630859375,-0.40027356147766113,0.22089114785194397,0.8984972834587097
1684108454471680000,0.241679931640625,-0.3103790879249573,0.24625268578529358,0.9202358722686768
1684108454481698000,0.251697998046875,-0.2323591560125351,0.32234230637550354,0.9674935340881348
1684108454491715800,0.2617158203125,-0.21893762052059174,0.40278974175453186,1.0247712135314941
1684108454501733000,0.271733154296875,-0.2754419445991516,0.5355514287948608,1.0666307210922241
1684108454511751000,0.2817509765625,-0.40436798334121704,0.6709989905357361,1.0537655353546143
1684108454521768200,0.291768310546875,-0.5291052460670471,0.6939393877983093,0.9924993515014648
1684108454531786000,0.301785888671875,-0.5420841574668884,0.630297064781189,0.9150194525718689
1684108454541803000,0.311802978515625,-0.4600836932659149,0.5122058987617493,0.842495322227478
1684108454551821000,0.321821044921875,-0.4262884557247162,0.46988746523857117,0.7640841603279114
1684108454561837800,0.331837890625,-0.6341249346733093,0.675029456615448,0.7341267466545105
1684108454571856100,0.341856201171875,-0.9803547859191895,0.8575625419616699,0.8101248145103455
1684108454581874000,0.3518740234375,-1.3352234363555908,1.1109411716461182,0.9935562014579773
1684108454591891000,0.361890869140625,-1.70216703414917,1.4612712860107422,1.1994068622589111
1684108454601909000,0.371908935546875,-2.134671688079834,1.8053998947143555,1.376194953918457
1684108454611926000,0.381926025390625,-1.7632620334625244,2.5968477725982666,1.090762972831726
1684108454621944000,0.391944091796875,-1.5381226539611816,2.6861412525177,0.9643521904945374
1684108454631961000,0.401961181640625,-1.8342432975769043,2.6801350116729736,1.0049407482147217
1684108454641979000,0.411978759765625,-2.1067187786102295,2.879138469696045,1.0555208921432495
1684108454651996000,0.421995849609375,-1.965111255645752,3.034727096557617,1.2181822061538696
1684108454662014000,0.432013916015625,-2.0244667530059814,3.1970553398132324,1.272193431854248
1684108454672032000,0.442031982421875,-2.1498303413391113,3.1201694011688232,1.4498881101608276
1684108454682049000,0.452049072265625,-2.264641284942627,3.1348743438720703,1.6186789274215698
1684108454692066800,0.46206689453125,-2.4630191326141357,3.081763982772827,1.8224844932556152
1684108454702084000,0.472083984375,-2.852217674255371,2.7809510231018066,2.0867671966552734
1684108454712102000,0.482101806640625,-3.417328357696533,2.312983751296997,2.9264137744903564
1684108454722119200,0.492119140625,-3.746453285217285,2.6725077629089355,4.397959232330322
1684108454732137000,0.502136962890625,-3.3919782638549805,3.811457872390747,5.038261890411377
1684108454742155000,0.512155029296875,-3.2040445804595947,4.242641925811768,5.27819299697876
1684108454752172000,0.522172119140625,-3.195464849472046,4.252566814422607,5.138614177703857
1684108454762190000,0.532190185546875,-3.08845591545105,4.114864826202393,4.626053333282471
1684108454772207000,0.54220703125,-2.792609930038452,3.955012798309326,3.6919875144958496
1684108454782225000,0.552224853515625,-2.167098045349121,3.046180486679077,1.6962467432022095
1684108454792242200,0.5622421875,-1.2806828022003174,1.3356521129608154,-0.4185199439525604
1684108454802260000,0.572260009765625,-0.6259810328483582,0.5595335960388184,-0.9512151479721069
1684108454812277000,0.582277099609375,-0.1831410527229309,0.690014660358429,-0.567686915397644
1684108454822295000,0.592294921875,0.09189528971910477,1.3130336999893188,-0.048000678420066833
1684108454832313000,0.60231298828125,0.07485265284776688,1.9840693473815918,0.32462242245674133
1684108454842329600,0.61232958984375,-0.024098677560687065,2.6414737701416016,0.3577512800693512
1684108454852347600,0.62234765625,-0.19935092329978943,3.3217523097991943,0.12826375663280487
1684108454862364400,0.632364501953125,-0.5321826934814453,3.681628465652466,-0.11204750090837479
1684108454872382700,0.6423828125,-0.719368577003479,4.1404852867126465,-0.11259531229734421
1684108454882399500,0.6523994140625,-0.644486129283905,4.837707042694092,0.25983092188835144
1684108454892417800,0.662417724609375,-0.6488388180732727,5.526202201843262,0.8886905908584595
1684108454902435600,0.672435546875,-0.8191788792610168,5.052868843078613,1.0090088844299316
1684108454912452600,0.68245263671875,-0.9480058550834656,3.540111541748047,0.6929924488067627
1684108454922470700,0.692470703125,-1.2220431566238403,2.1795895099639893,0.3232208788394928
1684108454932487400,0.7024873046875,-1.035285234451294,1.7387301921844482,0.2142680287361145
1684108454942505500,0.71250537109375,-2.4295449256896973,1.2363001108169556,-0.16921572387218475
1684108454952522500,0.7225224609375,-3.9819495677948,0.4817914366722107,-1.0859180688858032
1684108454962540500,0.73254052734375,-3.8020448684692383,0.6485763788223267,-1.8558766841888428
1684108454972557600,0.7425576171875,-1.3773808479309082,2.15327525138855,-1.3132290840148926
1684108454982575600,0.75257568359375,-0.11938890814781189,3.397657632827759,0.802086591720581
1684108454992593400,0.762593505859375,0.6802483201026917,3.3364791870117188,2.104494571685791
1684108455002610700,0.772610595703125,1.0585522651672363,1.6780009269714355,1.822913646697998
1684108455012628500,0.78262841796875,0.9676737785339355,-0.7165400981903076,0.5848443508148193
1684108455022645500,0.7926455078125,1.0108333826065063,-2.6889774799346924,-0.6830441355705261
1684108455032663600,0.80266357421875,1.1956849098205566,-3.344334840774536,-1.3345906734466553
1684108455042680600,0.8126806640625,0.9430694580078125,-0.9673775434494019,-0.017152613028883934
1684108455052698600,0.82269873046875,0.6104015111923218,-0.03796890750527382,-0.28299999237060547
1684108455062715600,0.832715576171875,-0.5817881226539612,0.8862118721008301,-0.5915791392326355
1684108455072733700,0.842733642578125,-1.7098649740219116,1.6817578077316284,-0.6038877367973328
1684108455082751500,0.85275146484375,-2.517437696456909,1.8477582931518555,-0.5600664615631104
1684108455092768800,0.862768798828125,-2.755213499069214,1.3790624141693115,-0.6006770133972168
1684108455102786600,0.87278662109375,-2.6701419353485107,0.5294658541679382,-0.8053874969482422
1684108455112803600,0.882803466796875,-2.6787877082824707,-0.3385893702507019,-1.2882920503616333
1684108455122821600,0.892821533203125,-2.8118839263916016,-1.0337952375411987,-1.788796305656433
1684108455132838400,0.90283837890625,-2.9635698795318604,-1.5729377269744873,-2.0753912925720215
1684108455142856700,0.912856689453125,-3.389105796813965,-1.579263687133789,-2.1781389713287354
1684108455152874800,0.922874755859375,-3.70820951461792,-1.2072232961654663,-1.9976615905761719
1684108455162891500,0.9328916015625,-3.7299652099609375,-0.2095375508069992,-1.498111605644226
1684108455172909600,0.94290966796875,-3.4721591472625732,0.9703894853591919,-1.0924266576766968
1684108455182926600,0.952926513671875,-3.1969635486602783,0.7584376931190491,-0.8032941222190857
1684108455192944600,0.962944580078125,-3.242530345916748,-0.8684027194976807,0.20687727630138397
1684108455202961700,0.972961669921875,-2.3232967853546143,-0.5686109066009521,0.6813086867332458
1684108455212979500,0.9829794921875,-1.196663737297058,-0.5071041584014893,0.49924224615097046
1684108455222997800,0.992997802734375,-0.44222787022590637,-1.076513648033142,0.2718939781188965
1684108455233014500,1.0030146484375,-0.03261266648769379,-0.5602197051048279,0.8276988863945007
1684108455243032600,1.013032470703125,0.4779133200645447,0.8949505686759949,1.7376596927642822
1684108455253049600,1.023049560546875,1.1763739585876465,1.7084187269210815,2.2060513496398926
1684108455263067400,1.0330673828125,1.93479323387146,1.1576439142227173,2.1386845111846924
1684108455273084700,1.043084716796875,2.641228675842285,-1.1386499404907227,1.774597406387329
1684108455283102500,1.0531025390625,3.2600889205932617,-3.6925973892211914,1.3217896223068237
1684108455293119700,1.06311962890625,4.084512233734131,-4.5344624519348145,1.18105947971344
1684108455303137500,1.073137451171875,4.601595401763916,-4.655092239379883,1.4539605379104614
1684108455313155600,1.083155517578125,4.201576232910156,-3.9424052238464355,1.5420604944229126
1684108455323172600,1.093172607421875,3.325643301010132,-2.958573341369629,1.4311164617538452
1684108455333190700,1.103190673828125,3.2209951877593994,-2.089226007461548,1.0542776584625244
1684108455343207700,1.113207763671875,3.8027777671813965,-1.188003659248352,1.050742268562317
1684108455353225700,1.123225830078125,3.6631884574890137,-0.6789430379867554,1.3923215866088867
1684108455363242800,1.13324267578125,2.457524299621582,-1.3864537477493286,1.604674220085144
1684108455373260500,1.143260498046875,1.2811923027038574,-1.5822120904922485,1.9287209510803223
1684108455383277600,1.153277587890625,-0.1202467605471611,-1.5258158445358276,2.504682779312134
1684108455393295600,1.163295654296875,-1.1097413301467896,0.8756369352340698,3.2459518909454346
1684108455403313700,1.173313720703125,-1.8035132884979248,3.0001747608184814,3.171772003173828
1684108455413330400,1.183330322265625,-2.1707332134246826,3.306647539138794,1.3712235689163208
1684108455423348700,1.1933486328125,-2.8998913764953613,2.740180015563965,0.10661160200834274
1684108455433365500,1.203365478515625,-3.703124523162842,3.172218084335327,-0.44780686497688293
1684108455443383800,1.2133837890625,-3.718648672103882,3.29740309715271,-0.763260543346405
1684108455453400600,1.223400634765625,-3.2048323154449463,2.7791943550109863,-0.988753080368042
1684108455463418400,1.23341845703125,-2.69415545463562,2.4028851985931396,-1.113810658454895
1684108455473436700,1.243436767578125,-2.0651419162750244,2.502051830291748,-1.265701174736023
1684108455483453400,1.253453369140625,-1.1739768981933594,3.1113550662994385,-1.2354788780212402
1684108455493471700,1.2634716796875,-0.40419143438339233,3.9692437648773193,-0.729884922504425
1684108455503488500,1.273488525390625,-0.314216285943985,5.193022727966309,-0.07358625531196594
1684108455513506600,1.283506591796875,-0.6105819344520569,5.707088470458984,0.16874036192893982
1684108455523523600,1.293523681640625,-1.285844326019287,4.946544170379639,0.4707774519920349
1684108455533541600,1.303541748046875,-2.091420888900757,3.901682138442993,0.7294049859046936
1684108455543558700,1.31355859375,-2.8150572776794434,3.5044760704040527,0.6829273104667664
1684108455553576700,1.32357666015625,-3.1627957820892334,2.6975836753845215,0.3915354013442993
1684108455563594500,1.333594482421875,-3.5594136714935303,2.3879685401916504,-0.05599526688456535
1684108455573611500,1.343611572265625,-3.843726873397827,2.405050277709961,-0.6366026997566223
1684108455583629600,1.353629638671875,-3.714160442352295,2.8765370845794678,-1.281238317489624
1684108455593646600,1.363646484375,-3.213822841644287,3.4489219188690186,-1.4512805938720703
1684108455603664600,1.37366455078125,-2.78836727142334,3.747788667678833,-1.187216877937317
1684108455613681700,1.383681640625,-2.614331007003784,3.601774215698242,-0.8451930284500122
1684108455623699700,1.39369970703125,-2.7977991104125977,3.054797410964966,-0.6155405640602112
1684108455633716500,1.403716552734375,-3.213388442993164,2.598421335220337,-0.49359336495399475
1684108455643734800,1.41373486328125,-3.5878660678863525,2.185974597930908,-0.13713055849075317
1684108455653752600,1.423752685546875,-3.7786786556243896,2.077061653137207,0.4003557860851288
1684108455663769600,1.43376953125,-3.725186824798584,1.945401668548584,1.0299029350280762
1684108455673787600,1.44378759765625,-3.7373831272125244,1.3341622352600098,1.7660109996795654
1684108455683804400,1.453804443359375,-3.7252798080444336,0.5373164415359497,2.5197036266326904
1684108455693822700,1.46382275390625,-3.8350627422332764,-0.28888049721717834,3.317518472671509
1684108455703839500,1.473839599609375,-4.181412696838379,-1.244070291519165,3.9244325160980225
1684108455713857500,1.483857421875,-4.5589823722839355,-1.658947467803955,4.094330787658691
1684108455723875600,1.49387548828125,-4.682526111602783,-1.5097025632858276,3.666715145111084
1684108455733892600,1.503892578125,-4.589112758636475,-1.2172045707702637,2.8584625720977783
1684108455743910700,1.51391064453125,-4.394519329071045,-0.531491219997406,1.7838882207870483
1684108455753927700,1.523927734375,-4.138011932373047,0.47401273250579834,0.4848807752132416
1684108455763945500,1.533945556640625,-3.7225661277770996,1.2697744369506836,-0.5940045714378357
1684108455773962500,1.54396240234375,-3.16101336479187,1.1059167385101318,-1.2991278171539307
1684108455783980500,1.55398046875,-2.493612289428711,-0.06363432854413986,-1.7549935579299927
1684108455793997600,1.56399755859375,-1.9141581058502197,-1.4156303405761719,-1.667733907699585
1684108455804015600,1.574015625,-1.586337924003601,-2.548570156097412,-1.1635346412658691
1684108455814033400,1.584033447265625,-1.3479729890823364,-3.5802161693573,-0.4792807400226593
1684108455824050700,1.59405078125,-1.3347572088241577,-4.206644058227539,0.2873763144016266
1684108455834068200,1.604068115234375,-1.7817528247833252,-4.417700290679932,1.0576001405715942
1684108455844085500,1.61408544921875,-2.0817127227783203,-4.203322410583496,1.430645227432251
1684108455854103300,1.624103271484375,-1.9802824258804321,-2.5747673511505127,1.0525977611541748
1684108455864120600,1.63412060546875,-1.8462058305740356,-0.2728581130504608,0.35472923517227173
1684108455874138400,1.644138427734375,-1.8535261154174805,0.9989000558853149,-0.3395131826400757
1684108455884156400,1.654156494140625,-1.9309544563293457,1.1764501333236694,-0.9192379117012024
1684108455894173400,1.66417333984375,-1.9356693029403687,1.0132708549499512,-1.2131824493408203
1684108455904191500,1.67419140625,-1.7853310108184814,0.7728059887886047,-0.9340944886207581
1684108455914208500,1.68420849609375,-1.4831650257110596,0.20186765491962433,-0.1611575186252594
1684108455924226300,1.694226318359375,-1.0053813457489014,-0.4665791094303131,0.697723388671875
1684108455934243300,1.704243408203125,-0.5662246942520142,-0.8458510637283325,1.15535569190979
1684108455944261400,1.714261474609375,-0.12754130363464355,-1.6237326860427856,1.4731323719024658
1684108455954278400,1.7242783203125,0.5936062335968018,-0.8599447011947632,1.7196828126907349
1684108455964296400,1.73429638671875,1.4386004209518433,-1.7697772979736328,1.4411349296569824
1684108455974314500,1.744314453125,2.274035692214966,-3.643409490585327,1.2247061729431152
1684108455984331300,1.754331298828125,3.443291187286377,-5.1421403884887695,1.0949679613113403
1684108455994349600,1.764349609375,4.650020599365234,-5.606541633605957,1.1426481008529663
1684108456004366300,1.774366455078125,5.683274269104004,-5.232621192932129,1.1392600536346436
1684108456014384400,1.78438427734375,6.1728196144104,-4.266356945037842,0.9421482086181641
1684108456024401400,1.7944013671875,6.2344651222229,-3.20115327835083,0.543170690536499
1684108456034419200,1.804419189453125,6.670489311218262,-1.5342203378677368,0.02702208235859871
1684108456044436500,1.8144365234375,7.186155796051025,0.3297466039657593,-0.37069761753082275
1684108456054454300,1.824454345703125,6.4471564292907715,1.2163797616958618,-0.2688583433628082
1684108456064472300,1.834472412109375,5.026645660400391,1.2021198272705078,0.008695735596120358
1684108456074489300,1.8444892578125,3.555558443069458,0.9578929543495178,0.21159611642360687
1684108456084507400,1.85450732421875,1.9874933958053589,0.9548192024230957,0.43970996141433716
1684108456094524400,1.8645244140625,0.44655850529670715,1.3050276041030884,0.8039991855621338
1684108456104542500,1.87454248046875,-0.8729423880577087,1.640008568763733,1.07672119140625
1684108456114559500,1.8845595703125,-1.9154618978500366,1.863627314567566,1.258270502090454
1684108456124577300,1.894577392578125,-2.5151262283325195,1.8569202423095703,1.5512332916259766
1684108456134595300,1.90459521484375,-2.6936004161834717,1.7345589399337769,1.944373607635498
1684108456144612400,1.9146123046875,-2.414656162261963,1.585989236831665,2.4050369262695312
1684108456154630400,1.92463037109375,-1.9762860536575317,1.3418726921081543,2.8025803565979004
1684108456164647400,1.9346474609375,-1.3135069608688354,1.8143986463546753,2.658940553665161
1684108456174665500,1.94466552734375,-0.6152960658073425,2.3601064682006836,2.1678826808929443
1684108456184682500,1.9546826171875,-0.14278507232666016,2.1553263664245605,1.542502760887146
1684108456194700500,1.964700439453125,0.09517768025398254,1.5140529870986938,0.7941601872444153
1684108456204717300,1.97471728515625,0.12724542617797852,0.5997641682624817,0.3202275037765503
1684108456214735400,1.9847353515625,0.030868027359247208,-0.2715286612510681,0.09894705563783646
1684108456224753400,1.99475341796875,-0.1675885021686554,-1.1120200157165527,-0.009009388275444508
1684108456234770200,2.004770263671875,-0.360460489988327,-1.88877272605896,0.023776521906256676
1684108456244788500,2.01478857421875,-0.5002694725990295,-2.4798660278320312,0.21642650663852692
1684108456254805200,2.02480517578125,-0.5674799084663391,-2.860588788986206,0.6168716549873352
1684108456264823600,2.034823486328125,-0.5340449213981628,-2.960714101791382,1.1814593076705933
1684108456274840300,2.04484033203125,-0.38251906633377075,-2.694336414337158,1.8262439966201782
1684108456284858400,2.0548583984375,-0.15626190602779388,-2.282527208328247,2.441775321960449
1684108456294875400,2.06487548828125,0.11088456958532333,-2.217860698699951,2.9667465686798096
1684108456304893400,2.0748935546875,0.4132819175720215,-2.6149985790252686,3.2897322177886963
1684108456314911500,2.084911376953125,0.5790157318115234,-2.9420571327209473,3.475192070007324
1684108456324928300,2.09492822265625,0.831523597240448,-2.9722368717193604,3.4078755378723145
1684108456334946300,2.1049462890625,1.503537654876709,1.397851586341858,0.27513396739959717
1684108456344963300,2.11496337890625,1.944838047027588,4.018791198730469,-2.915513515472412
1684108456354981400,2.1249814453125,1.7562851905822754,3.7357699871063232,-4.47567892074585
1684108456364998400,2.134998291015625,1.3610649108886719,2.4850475788116455,-4.902832508087158
1684108456375016400,2.145016357421875,0.9493883848190308,1.1452819108963013,-4.664524078369141
1684108456385034200,2.1550341796875,0.6369189620018005,0.13648013770580292,-4.208334922790527
1684108456395051500,2.165051513671875,0.3874201774597168,0.005533562041819096,-3.8135323524475098
1684108456405069300,2.1750693359375,0.10297252237796783,0.6837610006332397,-3.114846706390381
1684108456415086300,2.18508642578125,-0.15799088776111603,-0.3236272931098938,-1.013988733291626
1684108456425104400,2.1951044921875,-0.14926566183567047,-0.8946085572242737,0.24926002323627472
1684108456435121400,2.205121337890625,-0.0855838879942894,-1.1738250255584717,0.9560254812240601
1684108456445139500,2.215139404296875,-0.028785448521375656,-1.2384334802627563,1.3219190835952759
1684108456455156200,2.22515625,-0.0250860508531332,-0.9119824171066284,1.3481216430664062
1684108456465174500,2.235174560546875,-0.06820008158683777,-0.506825864315033,1.1670153141021729
1684108456475192300,2.2451923828125,-0.13221554458141327,-0.2593119442462921,0.9297289252281189
1684108456485209300,2.255209228515625,-0.1749255359172821,-0.16283831000328064,0.6974944472312927
1684108456495227400,2.265227294921875,-0.1677938550710678,-0.13125748932361603,0.4488295614719391
1684108456505244400,2.275244384765625,-0.12609362602233887,-0.14928318560123444,0.19333641231060028
1684108456515262500,2.285262451171875,-0.07228977978229523,-0.2715957760810852,-0.035359352827072144
1684108456525279200,2.295279296875,-0.040079474449157715,-0.4312850534915924,-0.21780456602573395
1684108456535297300,2.30529736328125,-0.02704702876508236,-0.5457831025123596,-0.3466842770576477
1684108456545314300,2.315314208984375,-0.009020845405757427,-0.5977092981338501,-0.4314918518066406
1684108456555332400,2.325332275390625,0.004663541913032532,-0.5789041519165039,-0.49469372630119324
1684108456565350400,2.335350341796875,0.018228190019726753,-0.5009317398071289,-0.5345239043235779
1684108456575367400,2.345367431640625,0.02742808125913143,-0.38434895873069763,-0.54451984167099
1684108456585385200,2.35538525390625,0.024972587823867798,-0.27409809827804565,-0.5001366138458252
1684108456595402500,2.365402587890625,0.004737091716378927,-0.20506788790225983,-0.38639727234840393
1684108456605420300,2.375420166015625,-0.019251806661486626,-0.136612668633461,-0.21731531620025635
1684108456615437300,2.385437255859375,-0.04231025278568268,-0.023995038121938705,-0.032710589468479156
1684108456625455400,2.395455322265625,-0.07367128133773804,0.20699317753314972,0.1037634089589119
1684108456635472400,2.405472412109375,-0.16392020881175995,0.5546792149543762,0.1702556163072586
1684108456645490400,2.415490478515625,-0.2734776437282562,0.9350872039794922,0.19476430118083954
1684108456655508200,2.42550830078125,-0.3449944257736206,1.2671431303024292,0.2102399319410324
1684108456665525500,2.435525390625,-0.36345401406288147,1.5469233989715576,0.22608010470867157
1684108456675543300,2.445543212890625,-0.33939632773399353,1.754774570465088,0.22654056549072266
1684108456685560600,2.455560546875,-0.2970477044582367,1.8947947025299072,0.20886346697807312
1684108456695578400,2.465578369140625,-0.25181257724761963,1.9388045072555542,0.17988614737987518
1684108456705595400,2.475595458984375,-0.21668611466884613,1.8440582752227783,0.15116924047470093
1684108456715613400,2.485613525390625,-0.16754812002182007,1.5825682878494263,0.144902303814888
1684108456725630200,2.495630126953125,-0.10396917164325714,1.1818010807037354,0.18842674791812897
1684108456735648500,2.5056484375,-0.03994438052177429,0.7292541861534119,0.24994681775569916
1684108456745666300,2.515666259765625,0.008662174455821514,0.32561036944389343,0.29574450850486755
1684108456755683300,2.525683349609375,0.008013960905373096,0.04989143833518028,0.3115306496620178
1684108456765701400,2.535701416015625,-0.02922959439456463,-0.09713537991046906,0.30752548575401306
1684108456775718400,2.545718505859375,-0.08741912990808487,-0.1222710981965065,0.3161317706108093
1684108456785736400,2.555736328125,-0.14048774540424347,-0.05767416954040527,0.36834976077079773
1684108456795753500,2.56575341796875,-0.17333783209323883,0.058574140071868896,0.4725185036659241
1684108456805771300,2.575771240234375,-0.19691339135169983,0.2071874886751175,0.6052378416061401
1684108456815789600,2.58578955078125,-0.18507377803325653,0.38804516196250916,0.7442570328712463
1684108456825806300,2.595806396484375,-0.16587258875370026,0.6084112524986267,0.8496150374412537
1684108456835826000,2.605825927734375,-0.159184068441391,0.8516443967819214,0.8719980716705322
1684108456845843000,2.615843017578125,-0.1701207160949707,1.0836763381958008,0.7911539077758789
1684108456855861000,2.625861083984375,-0.15132147073745728,1.2419897317886353,0.6430453658103943
1684108456865877800,2.635877685546875,-0.07773168385028839,1.2821956872940063,0.4937926232814789
1684108456875895800,2.645895751953125,0.032549016177654266,1.2218023538589478,0.36755719780921936
1684108456885912800,2.655912841796875,0.14262665808200836,1.088415503501892,0.27058660984039307
1684108456895931000,2.665930908203125,0.23504553735256195,0.9169785380363464,0.1751120388507843
1684108456905949000,2.675948974609375,0.30039286613464355,0.7390302419662476,0.08358284831047058
1684108456915965700,2.685965576171875,0.3289949595928192,0.566698431968689,0.004841160494834185
1684108456925984000,2.69598388671875,0.3220217823982239,0.4400257170200348,-0.07490561157464981
1684108456936000800,2.706000732421875,0.2875884473323822,0.37207943201065063,-0.13997729122638702
1684108456946018800,2.716018798828125,0.2475256323814392,0.3961200416088104,-0.1882481426000595
1684108456956035800,2.726035888671875,0.21506330370903015,0.4646548926830292,-0.19495850801467896
1684108456966053600,2.7360537109375,0.19428543746471405,0.48931238055229187,-0.14532886445522308
1684108456976071000,2.74607080078125,0.19690199196338654,0.3880731165409088,-0.038619983941316605
1684108456986088700,2.756088623046875,0.21025162935256958,0.1595044881105423,0.0973648726940155
1684108456996106800,2.766106689453125,0.21800969541072845,-0.14220397174358368,0.2194867879152298
1684108457006123800,2.776123779296875,0.20337389409542084,-0.4320346415042877,0.290558397769928
1684108457016141800,2.786141845703125,0.16935279965400696,-0.5859614014625549,0.29117119312286377
1684108457026158800,2.796158935546875,0.1412353813648224,-0.5288193225860596,0.20187480747699738
1684108457036177000,2.806177001953125,0.13100723922252655,-0.2770962715148926,0.019234690815210342
1684108457046194000,2.81619384765625,0.1219535544514656,0.06458622962236404,-0.223202183842659
1684108457056212000,2.8262119140625,0.08974821865558624,0.3747781813144684,-0.4373488128185272
1684108457066229800,2.836229736328125,0.024055035784840584,0.5632216930389404,-0.5712007880210876
1684108457076246800,2.846246826171875,-0.06195761263370514,0.6271727085113525,-0.5999059677124023
1684108457086264800,2.856264892578125,-0.14707224071025848,0.5714409351348877,-0.5258124470710754
1684108457096281900,2.86628173828125,-0.21472717821598053,0.41928917169570923,-0.34527891874313354
1684108457106300000,2.8762998046875,-0.24270671606063843,0.18332841992378235,-0.0890517607331276
1684108457116316700,2.886316650390625,-0.22070260345935822,-0.0664966031908989,0.17355908453464508
1684108457126335000,2.8963349609375,-0.1632617861032486,-0.2610359191894531,0.3877025842666626
1684108457136351700,2.906351806640625,-0.08420345932245255,-0.3607734143733978,0.5108695030212402
1684108457146370000,2.9163701171875,-0.012402954511344433,-0.3706081211566925,0.5255358815193176
1684108457156387800,2.926387939453125,0.03603355586528778,-0.29474905133247375,0.43296125531196594
1684108457166404600,2.936404541015625,0.0443464033305645,-0.18471680581569672,0.28294456005096436
1684108457176423000,2.9464228515625,0.016949666664004326,-0.06767620146274567,0.1471787393093109
1684108457186439700,2.956439697265625,-0.03958434611558914,0.028675276786088943,0.07904546707868576
1684108457196458000,2.9664580078125,-0.10882813483476639,0.09058311581611633,0.09721674770116806
1684108457206474800,2.976474853515625,-0.14300698041915894,0.14528383314609528,0.20084509253501892
1684108457216492800,2.986492919921875,-0.14947712421417236,0.2111493945121765,0.3630768954753876
1684108457226509800,2.996509765625,-0.12611307203769684,0.30393436551094055,0.537229597568512
1684108457236527900,3.00652783203125,-0.08153068274259567,0.4516383409500122,0.6671867966651917
1684108457246545700,3.016545654296875,-0.014789193868637085,0.6763908863067627,0.6974769830703735
1684108457256563000,3.02656298828125,0.03983357176184654,0.9551037549972534,0.5976345539093018
1684108457266580700,3.036580810546875,0.06658370047807693,1.1573572158813477,0.44093725085258484
1684108457276597800,3.04659765625,0.09161341935396194,1.2061764001846313,0.29404208064079285
1684108457286615800,3.05661572265625,0.11790040135383606,1.1110284328460693,0.19663313031196594
1684108457296632800,3.0666328125,0.14982397854328156,0.9118528366088867,0.141823410987854
1684108457306651000,3.07665087890625,0.17327335476875305,0.6362568736076355,0.12709493935108185
1684108457316668700,3.086668701171875,0.18455716967582703,0.29714295268058777,0.14343956112861633
1684108457326686000,3.09668603515625,0.19695226848125458,-0.06874369084835052,0.2001049965620041
1684108457336703700,3.106703857421875,0.21049150824546814,-0.4099034070968628,0.281615287065506
1684108457346721000,3.116720947265625,0.21197465062141418,-0.6432576179504395,0.35313212871551514
1684108457356738800,3.12673876953125,0.18671908974647522,-0.6775553822517395,0.3810042440891266
1684108457366755800,3.136755859375,0.12167128175497055,-0.39856624603271484,0.3123202919960022
1684108457376774000,3.14677392578125,0.04405984655022621,0.03627735748887062,0.18777889013290405
1684108457386790700,3.156790771484375,-0.0020753436256200075,0.3617929518222809,0.08620764315128326
1684108457396809000,3.16680908203125,-0.0086669335141778,0.45665183663368225,0.006090967915952206
1684108457406826800,3.17682666015625,0.012007730081677437,0.35224276781082153,-0.07347476482391357
1684108457416843800,3.18684375,0.041892122477293015,0.11126558482646942,-0.135100319981575
1684108457426861800,3.19686181640625,0.08258216083049774,-0.18782001733779907,-0.16231340169906616
1684108457436878800,3.20687890625,0.12116683274507523,-0.4972412586212158,-0.16671240329742432
1684108457446897000,3.21689697265625,0.15416592359542847,-0.7799158096313477,-0.14301055669784546
1684108457456914000,3.226913818359375,0.17974504828453064,-1.01472806930542,-0.11493711918592453
1684108457466931700,3.236931640625,0.18351995944976807,-1.1423126459121704,-0.09417302161455154
1684108457476948700,3.24694873046875,0.16835619509220123,-1.1392431259155273,-0.0878022089600563
1684108457486966800,3.256966796875,0.13458530604839325,-1.021409034729004,-0.10777202248573303
1684108457496984800,3.26698486328125,0.08028372377157211,-0.8280409574508667,-0.12036770582199097
1684108457507001900,3.277001953125,0.03929166495800018,-0.6043071150779724,-0.12702243030071259
1684108457517019600,3.28701953125,0.015369820408523083,-0.39696168899536133,-0.10993080586194992
1684108457527037000,3.297036865234375,-0.006790922023355961,-0.23053871095180511,-0.06294337660074234
1684108457537054700,3.3070546875,-0.028621653094887733,-0.06915594637393951,-0.008426077663898468
1684108457547072000,3.317072021484375,-0.053392909467220306,0.1462360918521881,0.0022769984789192677
1684108457557089800,3.32708984375,-0.05565419793128967,0.4871364235877991,-0.08984733372926712
1684108457567107800,3.33710791015625,-0.04868076741695404,0.8990499377250671,-0.2677326202392578
1684108457577124900,3.347124755859375,-0.05859997868537903,1.2303855419158936,-0.4438493251800537
1684108457587143000,3.357142822265625,-0.06957697868347168,1.3615851402282715,-0.5441895127296448
1684108457597160000,3.367159912109375,-0.07816939800977707,1.241471529006958,-0.5176780223846436
1684108457607177700,3.377177734375,-0.06909312307834625,0.8139573335647583,-0.31570374965667725
1684108457617195000,3.387195068359375,-0.03031589835882187,0.19845205545425415,0.01415245421230793
1684108457627212800,3.397212890625,0.03534691035747528,-0.35975635051727295,0.31747129559516907
1684108457637229800,3.407229736328125,0.08296608924865723,-0.7194045186042786,0.48638200759887695
1684108457647248000,3.417247802734375,0.08818861842155457,-0.8580729365348816,0.4900021255016327
1684108457657266000,3.427265869140625,0.05187002569437027,-0.7969147562980652,0.3332410156726837
1684108457667283000,3.437282958984375,-0.0019201283575966954,-0.6413983702659607,0.08556070923805237
1684108457677301000,3.447301025390625,-0.023224083706736565,-0.5544032454490662,-0.1464157998561859
1684108457687317800,3.45731787109375,0.008548134006559849,-0.6056786775588989,-0.3071322739124298
1684108457697336000,3.467336181640625,0.07490851730108261,-0.767513632774353,-0.39497238397598267
1684108457707352800,3.477352783203125,0.1415756791830063,-0.9642178416252136,-0.433743417263031
1684108457717370600,3.48737060546875,0.18882600963115692,-1.0948152542114258,-0.448351114988327
1684108457727389000,3.497388916015625,0.20522195100784302,-1.113243818283081,-0.45413222908973694
1684108457737405700,3.50740576171875,0.1956750452518463,-1.0074284076690674,-0.4610633850097656
1684108457747424000,3.517424072265625,0.1742737591266632,-0.8298396468162537,-0.48292669653892517
1684108457757440800,3.527440673828125,0.1483106017112732,-0.6790024638175964,-0.5225305557250977
1684108457767458800,3.537458740234375,0.1342286765575409,-0.5972502827644348,-0.5700384974479675
1684108457777475800,3.547475830078125,0.12436886131763458,-0.5966185927391052,-0.62021404504776
1684108457787494000,3.557493896484375,0.11365443468093872,-0.6649934649467468,-0.6495579481124878
1684108457797511000,3.567510986328125,0.09904567152261734,-0.7611171007156372,-0.6576403379440308
1684108457807528700,3.57752880859375,0.06943286955356598,-0.8489418625831604,-0.6488825678825378
1684108457817546800,3.587546630859375,0.0315222404897213,-0.8968204259872437,-0.6255850195884705
1684108457827563800,3.597563720703125,-0.017463019117712975,-0.9058371186256409,-0.5879892110824585
1684108457837580800,3.607580810546875,-0.06101742014288902,-0.8664127588272095,-0.5346844792366028
1684108457847597800,3.617597900390625,-0.09708833694458008,-0.758844256401062,-0.4722333550453186
1684108457857616000,3.627615966796875,-0.12778685986995697,-0.5826082229614258,-0.4219004213809967
1684108457867633000,3.6376328125,-0.13450229167938232,-0.31042519211769104,-0.4230530261993408
1684108457877651000,3.64765087890625,-0.12938635051250458,0.033602483570575714,-0.48725172877311707
1684108457887668000,3.65766796875,-0.139849454164505,0.3355773389339447,-0.575126051902771
1684108457897685800,3.667685791015625,-0.14559683203697205,0.5096354484558105,-0.6412816643714905
1684108457907703800,3.677703857421875,-0.12696422636508942,0.5072751641273499,-0.6430310606956482
1684108457917720800,3.687720947265625,-0.08433368802070618,0.34620556235313416,-0.5518872737884521
1684108457927739000,3.69773876953125,-0.030503420159220695,0.08269492536783218,-0.3690941333770752
1684108457937756000,3.707755859375,0.01797490008175373,-0.20420102775096893,-0.1553352326154709
1684108457947774000,3.71777392578125,0.042683813720941544,-0.4491198658943176,0.03163868561387062
1684108457957791000,3.727791015625,0.04519011452794075,-0.5759843587875366,0.1413385570049286
1684108457967809000,3.73780908203125,0.027997268363833427,-0.48372170329093933,0.13193818926811218
1684108457977826800,3.747826904296875,-0.02217642031610012,-0.11107783019542694,0.01183282770216465
1684108457987844000,3.757843994140625,-0.09504062682390213,0.30416998267173767,-0.15835778415203094
1684108457997862000,3.76786181640625,-0.15478570759296417,0.5827003717422485,-0.2877914309501648
1684108458007878700,3.777878662109375,-0.19584307074546814,0.7439936995506287,-0.39372584223747253
1684108458017897000,3.78789697265625,-0.193703755736351,0.7956364154815674,-0.4799001216888428
1684108458027913700,3.797913818359375,-0.1666513830423355,0.6673988699913025,-0.5193718671798706
1684108458037932000,3.80793212890625,-0.1160726249217987,0.34541869163513184,-0.49419909715652466
1684108458047948800,3.81794873046875,-0.044077977538108826,-0.08279434591531754,-0.4332112967967987
1684108458057966800,3.827966796875,0.04494377225637436,-0.5094460844993591,-0.3722488582134247
1684108458067985000,3.83798486328125,0.12195075303316116,-0.8412171006202698,-0.34732040762901306
1684108458078002000,3.848001953125,0.1602933406829834,-1.041712999343872,-0.35563719272613525
1684108458088020000,3.85802001953125,0.15968775749206543,-1.1122040748596191,-0.37446165084838867
1684108458098036700,3.86803662109375,0.1275111734867096,-1.102866768836975,-0.37006717920303345
1684108458108054800,3.8780546875,0.0969918817281723,-1.0475292205810547,-0.3240695893764496
1684108458118071800,3.88807177734375,0.08021184056997299,-0.9693548083305359,-0.22603195905685425
1684108458128089900,3.89808984375,0.05693254619836807,-0.8822046518325806,-0.09057311713695526
1684108458138107000,3.90810693359375,0.023010799661278725,-0.7951000928878784,0.08461015671491623
1684108458148125000,3.918125,-0.020996836945414543,-0.6793924570083618,0.2611349821090698
1684108458158142700,3.928142822265625,-0.0658591166138649,-0.501696765422821,0.4132981300354004
1684108458168160000,3.938159912109375,-0.09628240019083023,-0.18311233818531036,0.47207847237586975
1684108458178177800,3.948177734375,-0.11473384499549866,0.4668568968772888,0.31400203704833984
1684108458188195000,3.958195068359375,-0.11502942442893982,1.2379084825515747,0.02849530056118965
1684108458198212900,3.968212890625,-0.09093394875526428,1.671867847442627,-0.1761728972196579
1684108458208230000,3.97822998046875,-0.055119629949331284,1.7437827587127686,-0.25946974754333496
1684108458218248000,3.988248046875,-0.013031831942498684,1.578484296798706,-0.25641271471977234
1684108458228265700,3.998265625,0.030151695013046265,1.2653182744979858,-0.17818975448608398
1684108458238283000,4.008282958984375,0.09436476975679398,0.8522505164146423,-0.03422912210226059
1684108458248300800,4.01830078125,0.1597936600446701,0.4156720042228699,0.13099730014801025
1684108458258317800,4.02831787109375,0.19329595565795898,0.019108669832348824,0.2558388411998749
1684108458268335900,4.0383359375,0.18437345325946808,-0.2750004529953003,0.3125540614128113
1684108458278353000,4.048352783203125,0.142185777425766,-0.34869569540023804,0.25322869420051575
1684108458288371000,4.058370849609375,0.04655175283551216,-0.07220135629177094,0.052832067012786865
1684108458298387700,4.0683876953125,-0.06856497377157211,0.4032711386680603,-0.22372868657112122
1684108458308405800,4.07840576171875,-0.12675802409648895,0.7440835237503052,-0.43721944093704224
1684108458318424000,4.088424072265625,-0.11394848674535751,0.8008248805999756,-0.5446351766586304
1684108458328440800,4.09844091796875,-0.08308951556682587,0.5774478912353516,-0.5590831637382507
1684108458338459000,4.108458984375,-0.06681280583143234,0.18517887592315674,-0.502434253692627
1684108458348476000,4.118475830078125,-0.0405978299677372,-0.24625349044799805,-0.40779078006744385
1684108458358493700,4.12849365234375,0.0018713335739448667,-0.6480837464332581,-0.30042463541030884
1684108458368511000,4.138510986328125,0.03927820920944214,-0.9758173823356628,-0.190696582198143
1684108458378528800,4.14852880859375,0.06366024911403656,-1.1878068447113037,-0.07515481859445572
1684108458388546000,4.158546142578125,0.058206476271152496,-1.250938892364502,0.039253685623407364
1684108458398563800,4.168563720703125,0.0270586758852005,-1.1124311685562134,0.12401438504457474
1684108458408582000,4.178581787109375,-0.01952195353806019,-0.7470402121543884,0.12937262654304504
1684108458418599000,4.188598876953125,-0.06621994823217392,-0.15729229152202606,0.020096467807888985
1684108458428616700,4.19861669921875,-0.1138492003083229,0.4018411338329315,-0.13995987176895142
1684108458438634000,4.208634033203125,-0.16392487287521362,0.6542581915855408,-0.2125682830810547
1684108458448651800,4.21865185546875,-0.18272382020950317,0.608259916305542,-0.15353180468082428
1684108458458669000,4.2286689453125,-0.1640942096710205,0.3708534836769104,-0.013928643427789211
1684108458468686800,4.238686767578125,-0.12343963235616684,0.016138534992933273,0.18423216044902802
1684108458478705000,4.248704833984375,-0.0853380560874939,-0.3662479817867279,0.385392963886261
1684108458488722000,4.258721923828125,-0.04916101694107056,-0.6317596435546875,0.5206713080406189
1684108458498740000,4.268739990234375,-0.016117844730615616,-0.7084352970123291,0.4928034543991089
1684108458508757000,4.278757080078125,0.014914281666278839,-0.729603111743927,0.30720239877700806
1684108458518775000,4.288775146484375,0.058088649064302444,-0.8094260096549988,0.040184829384088516
1684108458528791800,4.298791748046875,0.09896565228700638,-0.8181424736976624,-0.2523958086967468
1684108458538809900,4.308809814453125,0.10516548901796341,-0.4901403784751892,-0.5734790563583374
1684108458548827000,4.318826904296875,0.005721640307456255,0.18835921585559845,-0.9101045727729797
1684108458558845000,4.328844970703125,-0.1363995373249054,0.8518120646476746,-1.0937066078186035
1684108458568863000,4.338863037109375,-0.2189004123210907,1.139501690864563,-1.001143217086792
1684108458578879700,4.348879638671875,-0.24885085225105286,0.8615710139274597,-0.7011680006980896
1684108458588898000,4.35889794921875,-0.265073299407959,0.2084910273551941,-0.3663366436958313
1684108458598914800,4.368914794921875,-0.22771157324314117,-0.46491241455078125,-0.11738432198762894
1684108458608932900,4.378932861328125,-0.11351443827152252,-0.9204354286193848,0.016176737844944
1684108458618950000,4.388949951171875,0.057471420615911484,-1.0781561136245728,0.015622001141309738
1684108458628967700,4.3989677734375,0.21919028460979462,-0.9091039299964905,-0.15495052933692932
1684108458638985000,4.40898486328125,0.31320998072624207,-0.6562932133674622,-0.34088075160980225
1684108458649002800,4.419002685546875,0.294603168964386,-0.5553215742111206,-0.36577174067497253
1684108458659020800,4.429020751953125,0.19064776599407196,-0.522721529006958,-0.24671697616577148
1684108458669037800,4.439037841796875,0.06903308629989624,-0.42257118225097656,-0.07257325947284698
1684108458679056000,4.449055908203125,0.004539843183010817,-0.16225863993167877,0.07507958263158798
1684108458689073000,4.459072998046875,0.02474113740026951,0.05747229978442192,0.200473815202713
1684108458699091000,4.469091064453125,0.08678267151117325,0.08399046957492828,0.33632752299308777
1684108458709108000,4.47910791015625,0.14608615636825562,-0.01568819396197796,0.4371319115161896
1684108458719126000,4.4891259765625,0.16624228656291962,-0.1614760160446167,0.4607219099998474
1684108458729143800,4.499143798828125,0.13653779029846191,-0.22196350991725922,0.4231213927268982
1684108458739160800,4.509160888671875,0.0698314681649208,-0.07034282386302948,0.32760047912597656
1684108458749179000,4.519178955078125,-0.009009266272187233,0.29876527190208435,0.2061907947063446
1684108458759196000,4.52919580078125,-0.08925484120845795,0.7149541974067688,0.07549004256725311
1684108458769214000,4.5392138671875,-0.1165626123547554,1.0063447952270508,-0.07654955238103867
1684108458779230700,4.549230712890625,-0.043894000351428986,1.0477607250213623,-0.25249502062797546
1684108458789249000,4.5592490234375,0.03719316050410271,0.7901851534843445,-0.39854297041893005
1684108458799265800,4.569265869140625,0.08400674164295197,0.29534903168678284,-0.45467257499694824
1684108458809284000,4.5792841796875,0.10903214663267136,-0.33584097027778625,-0.3674090802669525
1684108458819302000,4.589302001953125,0.12347766757011414,-0.873171329498291,-0.18345125019550323
1684108458829318700,4.599318603515625,0.13329125940799713,-1.1744681596755981,-0.00683594448491931
1684108458839336700,4.609336669921875,0.12275392562150955,-1.196372389793396,0.1080099418759346
1684108458849353500,4.619353515625,0.10602277517318726,-0.9647544622421265,0.14236094057559967
1684108458859371800,4.629371826171875,0.08364477008581161,-0.5827799439430237,0.10651454329490662
1684108458869388500,4.639388427734375,0.061329614371061325,-0.1319781392812729,0.016298891976475716
1684108458879406600,4.649406494140625,0.03681894391775131,0.2831309139728546,-0.11044280230998993
1684108458889424600,4.659424560546875,0.02494574710726738,0.536442756652832,-0.1963903307914734
1684108458899441700,4.669441650390625,0.040566522628068924,0.6018494367599487,-0.22718818485736847
1684108458909459700,4.679459716796875,0.07491861283779144,0.5197542905807495,-0.21871499717235565
1684108458919476700,4.689476806640625,0.11438453197479248,0.34471404552459717,-0.16940151154994965
1684108458929494500,4.69949462890625,0.14676706492900848,0.0848468467593193,-0.06613261252641678
1684108458939511600,4.709511474609375,0.17713482677936554,-0.1834178864955902,0.08100863546133041
1684108458949529600,4.719529541015625,0.20499105751514435,-0.3842392563819885,0.18446242809295654
1684108458959546600,4.729546630859375,0.20228102803230286,-0.49318838119506836,0.20311254262924194
1684108458969564700,4.739564697265625,0.16321982443332672,-0.5004293322563171,0.15675652027130127
1684108458979582500,4.74958251953125,0.10976513475179672,-0.3890756070613861,0.07945826649665833
1684108458989599700,4.759599853515625,0.04570183530449867,-0.1880987584590912,0.020765434950590134
1684108458999617500,4.769617431640625,-0.027640288695693016,0.05542042851448059,0.00021461897995322943
1684108459009634800,4.779634765625,-0.07255202531814575,0.26295268535614014,0.03498496115207672
1684108459019652600,4.789652587890625,-0.08042353391647339,0.4106752872467041,0.09539424628019333
1684108459029669600,4.799669677734375,-0.07084567844867706,0.5025098323822021,0.14840897917747498
1684108459039687700,4.809687744140625,-0.06113605946302414,0.5199106931686401,0.19166749715805054
1684108459049705700,4.819705810546875,-0.0549129918217659,0.40874528884887695,0.23376992344856262
1684108459059722800,4.82972265625,-0.031248942017555237,0.17430295050144196,0.27486222982406616
1684108459069740500,4.839740478515625,0.0017147620674222708,-0.06463007628917694,0.2754236161708832
1684108459079757600,4.849757568359375,0.036315083503723145,-0.1855597048997879,0.20969171822071075
1684108459089775600,4.859775634765625,0.06396231055259705,-0.1766834706068039,0.10562480241060257
1684108459099792600,4.869792724609375,0.09847181290388107,-0.10621596872806549,0.016269627958536148
1684108459109810700,4.879810791015625,0.14042383432388306,-0.014519685879349709,-0.0450667180120945
1684108459119827700,4.88982763671875,0.18205969035625458,0.06079716980457306,-0.09859119355678558
1684108459129845500,4.899845458984375,0.19197098910808563,0.08918904513120651,-0.14404745399951935
1684108459139863800,4.90986376953125,0.15345768630504608,0.08508378267288208,-0.18504388630390167
1684108459149880600,4.919880615234375,0.08123422414064407,0.0571393184363842,-0.18231244385242462
1684108459159898600,4.929898681640625,0.006515248212963343,-0.018356233835220337,-0.11493632942438126
1684108459169915600,4.93991552734375,-0.04212210699915886,-0.17463630437850952,0.023618102073669434
1684108459179933400,4.949933349609375,-0.06742213666439056,-0.3545149862766266,0.19379064440727234
1684108459189950700,4.95995068359375,-0.09283675253391266,-0.480183869600296,0.33717530965805054
1684108459199968500,4.969968505859375,-0.08484646677970886,-0.49029242992401123,0.4310983419418335
1684108459209985800,4.97998583984375,-0.0412527360022068,-0.3830653131008148,0.47185489535331726
1684108459220003600,4.990003662109375,-0.006889170967042446,-0.22056056559085846,0.4201781153678894
1684108459230021600,5.000021728515625,0.009589973837137222,-0.01816093735396862,0.25739121437072754
1684108459240038700,5.01003857421875,0.030367955565452576,0.20634327828884125,-0.0022092079743742943
1684108459250056700,5.020056640625,0.04408799484372139,0.34856390953063965,-0.2366170436143875
1684108459260073700,5.03007373046875,0.026433099061250687,0.37172675132751465,-0.36844220757484436
1684108459270091500,5.040091552734375,-0.014402455650269985,0.3002797067165375,-0.3820675015449524
1684108459280108800,5.05010888671875,-0.03883828967809677,0.14494924247264862,-0.2852695882320404
1684108459290126600,5.060126708984375,-0.021955540403723717,-0.06321185827255249,-0.10217233002185822
1684108459300144600,5.07014453125,0.00009463357855565846,-0.27446097135543823,0.09124453365802765
1684108459310161700,5.08016162109375,0.004792635329067707,-0.42137861251831055,0.22774900496006012
1684108459320179700,5.0901796875,-0.021550288423895836,-0.4432298541069031,0.2718738615512848
1684108459330196700,5.10019677734375,-0.05880357325077057,-0.3302331566810608,0.2134556621313095
1684108459340214800,5.11021484375,-0.10146874189376831,-0.11499090492725372,0.07675693929195404
1684108459350231600,5.1202314453125,-0.14368553459644318,0.1085689589381218,-0.07146798819303513
1684108459360249600,5.13024951171875,-0.16382701694965363,0.19446255266666412,-0.12802021205425262
1684108459370266600,5.1402666015625,-0.15436142683029175,0.1306597888469696,-0.07918727397918701
1684108459380284700,5.15028466796875,-0.11382757872343063,-0.009190790355205536,0.03997213765978813
1684108459390302700,5.160302734375,-0.0630306750535965,-0.13727739453315735,0.17858439683914185
1684108459400319500,5.170319580078125,-0.016462910920381546,-0.20501835644245148,0.2896033525466919
1684108459410337800,5.180337890625,0.009005756117403507,-0.2229941487312317,0.35488805174827576
1684108459420354600,5.1903544921875,0.015575508587062359,-0.19188310205936432,0.3516765534877777
1684108459430372600,5.20037255859375,0.012140621431171894,-0.08851144462823868,0.2520623207092285
1684108459440389600,5.2103896484375,-0.006449307780712843,0.08338335156440735,0.06971567869186401
1684108459450407700,5.22040771484375,-0.04558466747403145,0.2567996084690094,-0.1182481124997139
1684108459460425700,5.23042578125,-0.0854433998465538,0.3281475603580475,-0.20611804723739624
1684108459470442500,5.2404423828125,-0.1065082997083664,0.27701592445373535,-0.17271111905574799
1684108459480460500,5.25046044921875,-0.10487711429595947,0.12506476044654846,-0.044369667768478394
1684108459490477600,5.2604775390625,-0.09515152871608734,-0.06834554672241211,0.12795975804328918
1684108459500495600,5.27049560546875,-0.07529153674840927,-0.2493896335363388,0.3021491467952728
1684108459510512600,5.2805126953125,-0.05051364377140999,-0.36857718229293823,0.42347559332847595
1684108459520530700,5.29053076171875,-0.03313678503036499,-0.35782814025878906,0.4541831612586975
1684108459530547700,5.300547607421875,-0.025822613388299942,-0.18350888788700104,0.3568645417690277
1684108459540565800,5.310565673828125,-0.03567923977971077,0.11629913747310638,0.15984679758548737
1684108459550583600,5.32058349609375,-0.051588453352451324,0.391297310590744,-0.0648769736289978
1684108459560600600,5.3306005859375,-0.0612538643181324,0.5160432457923889,-0.22953729331493378
1684108459570618600,5.34061865234375,-0.05305945500731468,0.5068808197975159,-0.3072154223918915
1684108459580635600,5.3506357421875,-0.042055271565914154,0.4170454740524292,-0.3228819966316223
1684108459590653700,5.36065380859375,-0.05807289108633995,0.24843338131904602,-0.29505181312561035
1684108459600670500,5.37067041015625,-0.11627015471458435,0.03127310425043106,-0.21921883523464203
1684108459610688800,5.380688720703125,-0.15272308886051178,-0.19274082779884338,-0.10069908201694489
1684108459620705500,5.39070556640625,-0.1656615138053894,-0.37867578864097595,0.032213155180215836
1684108459630723800,5.400723876953125,-0.1466994732618332,-0.4954105019569397,0.16914641857147217
1684108459640741600,5.41074169921875,-0.13951240479946136,-0.5456827282905579,0.29472780227661133
1684108459650758700,5.420758544921875,-0.14271214604377747,-0.5249435901641846,0.38632434606552124
1684108459660776700,5.430776611328125,-0.1458328366279602,-0.3896277844905853,0.40800008177757263
1684108459670793500,5.44079345703125,-0.13165226578712463,-0.0814071074128151,0.28839197754859924
1684108459680811500,5.4508115234375,-0.10626541823148727,0.3796899616718292,0.027112167328596115
1684108459690828500,5.46082861328125,-0.07782098650932312,0.6984177827835083,-0.21303951740264893
1684108459700846600,5.4708466796875,-0.06258717179298401,0.7583777904510498,-0.3089604377746582
1684108459710864600,5.48086474609375,-0.03433306887745857,0.64146488904953,-0.2965415120124817
1684108459720881700,5.490881591796875,0.012993168085813522,0.4461023509502411,-0.20828565955162048
1684108459730899500,5.5008994140625,0.07072343677282333,0.22270405292510986,-0.08653349429368973
1684108459740916700,5.510916748046875,0.10371413826942444,0.043438155204057693,0.0032424647361040115
1684108459750934500,5.5209345703125,0.1224709153175354,-0.03008834831416607,0.012277406640350819
1684108459760951600,5.53095166015625,0.1262771040201187,0.03496495634317398,-0.07354428619146347
1684108459770969600,5.540969482421875,0.1277168095111847,0.20048147439956665,-0.24601006507873535
1684108459780987600,5.550987548828125,0.12342938780784607,0.380224347114563,-0.4801352322101593
1684108459791004700,5.561004638671875,0.09259504079818726,0.4382258653640747,-0.6788903474807739
1684108459801022500,5.5710224609375,0.062439002096652985,0.35146647691726685,-0.7790574431419373
1684108459811039700,5.581039794921875,0.060978930443525314,0.1764710396528244,-0.7661290764808655
1684108459821057500,5.5910576171875,0.049728140234947205,-0.02186867967247963,-0.6639792323112488
1684108459831074800,5.60107470703125,0.015757529065012932,-0.1971764862537384,-0.4852389693260193
1684108459841094000,5.611093994140625,-0.028751615434885025,-0.29090696573257446,-0.2589121162891388
1684108459851110700,5.621110595703125,-0.05135849490761757,-0.27450889348983765,-0.028974270448088646
1684108459861128700,5.631128662109375,-0.05664460361003876,-0.1509166806936264,0.14059744775295258
1684108459871146800,5.641146728515625,-0.0317196361720562,0.07855619490146637,0.16558638215065002
1684108459881163500,5.65116357421875,0.03235095739364624,0.4975989758968353,-0.043043263256549835
1684108459891181800,5.661181884765625,0.12745773792266846,1.060825228691101,-0.457673043012619
1684108459901198600,5.671198486328125,0.21819722652435303,1.4410676956176758,-0.8792147040367126
1684108459911216600,5.681216552734375,0.29812905192375183,1.3861844539642334,-1.1275676488876343
1684108459921233700,5.691233642578125,0.3892880082130432,0.9664439558982849,-1.166653037071228
1684108459931251700,5.701251708984375,0.4515325129032135,0.37851548194885254,-1.0475846529006958
1684108459941268700,5.711268798828125,0.49256038665771484,-0.14029519259929657,-0.8377774357795715
1684108459951286800,5.721286865234375,0.49075424671173096,-0.39188411831855774,-0.6330541968345642
1684108459961304600,5.7313046875,0.39750421047210693,-0.4015609920024872,-0.46195703744888306
1684108459971321900,5.74132177734375,0.26637837290763855,-0.3164116144180298,-0.2971721887588501
1684108459981339600,5.751339599609375,0.17775608599185944,-0.2733994424343109,-0.13526853919029236
1684108459991356700,5.761356689453125,0.1415334939956665,-0.2968848943710327,0.003016277914866805
1684108460001374700,5.771374755859375,0.1458835005760193,-0.3171781897544861,0.10012178868055344
1684108460011391700,5.781391845703125,0.17280533909797668,-0.2851998209953308,0.11597499996423721
1684108460021409800,5.791409912109375,0.20124897360801697,-0.18914200365543365,0.0556408166885376
1684108460031426600,5.801426513671875,0.22907127439975739,-0.059131987392902374,-0.03462535887956619
1684108460041444900,5.81144482421875,0.22325333952903748,0.06863183528184891,-0.08383604884147644
1684108460051462700,5.821462646484375,0.18913522362709045,0.14812345802783966,-0.08391598612070084
1684108460061479700,5.831479736328125,0.1443302035331726,0.24347048997879028,-0.043343789875507355
1684108460071497700,5.841497802734375,0.10827761888504028,0.39980417490005493,0.02654096856713295
1684108460081514500,5.851514404296875,0.06557969003915787,0.5778594017028809,0.1425946056842804
1684108460091532800,5.86153271484375,0.03273443877696991,0.6640706658363342,0.33760562539100647
1684108460101549600,5.871549560546875,0.026748452335596085,0.5794428586959839,0.625417947769165
1684108460111567600,5.881567626953125,-0.00480574369430542,0.3324759006500244,0.9327715039253235
1684108460121585700,5.891585693359375,-0.06113879010081291,0.2199493646621704,1.1406402587890625
1684108460131602700,5.901602783203125,-0.16754290461540222,0.4452328383922577,1.0822150707244873
1684108460141620700,5.911620849609375,-0.27466297149658203,0.6841151714324951,0.7399789690971375
1684108460151637800,5.9216376953125,-0.3372993469238281,0.7544426918029785,0.21436525881290436
1684108460161655600,5.931655517578125,-0.3568674623966217,0.5959438681602478,-0.35688814520835876
1684108460171672800,5.9416728515625,-0.33742061257362366,0.28704822063446045,-0.8110213875770569
1684108460181690600,5.951690673828125,-0.3647680878639221,-0.17312094569206238,-1.0315039157867432
1684108460191709000,5.961708984375,-0.4847530126571655,-0.8213376402854919,-0.9684743881225586
1684108460201725700,5.9717255859375,-0.6014705896377563,-1.436951756477356,-0.6986791491508484
1684108460211743700,5.98174365234375,-0.616830587387085,-1.700793743133545,-0.35998910665512085
1684108460221760800,5.9917607421875,-0.5455220341682434,-1.6408640146255493,-0.029900405555963516
1684108460231778600,6.001778564453125,-0.44559866189956665,-1.3667329549789429,0.23784974217414856
1684108460241795800,6.0117958984375,-0.3388857841491699,-0.9998591542243958,0.4064057171344757
1684108460251813600,6.021813720703125,-0.21444378793239594,-0.6543043851852417,0.45535436272621155
1684108460261831000,6.031830810546875,-0.08871567249298096,-0.40056848526000977,0.433457612991333
1684108460271848700,6.0418486328125,-0.01760302111506462,-0.3143111765384674,0.3997264504432678
1684108460281866800,6.05186669921875,-0.006339180748909712,-0.3796931207180023,0.37463468313217163
1684108460291883800,6.0618837890625,0.010464821942150593,-0.47122427821159363,0.354448527097702
1684108460301901800,6.07190185546875,0.08639580756425858,-0.4869087040424347,0.316945880651474
1684108460311918800,6.0819189453125,0.1983613818883896,-0.3785705864429474,0.24899794161319733
1684108460321936600,6.0919365234375,0.2945571839809418,-0.16409985721111298,0.20240193605422974
1684108460331953700,6.10195361328125,0.3449782729148865,0.06547793745994568,0.22426436841487885
1684108460341971700,6.1119716796875,0.3412727415561676,0.25317221879959106,0.31865957379341125
1684108460351989800,6.12198974609375,0.3172987699508667,0.4079083502292633,0.4401858448982239
1684108460362006800,6.1320068359375,0.31592562794685364,0.5481120347976685,0.5391449332237244
1684108460372024800,6.14202490234375,0.30673491954803467,0.6029855012893677,0.583246648311615
1684108460382041600,6.15204150390625,0.2598443627357483,0.5602095127105713,0.5463876724243164
1684108460392060000,6.162059814453125,0.16319891810417175,0.4621500074863434,0.4180128276348114
1684108460402076700,6.17207666015625,0.034185539931058884,0.3551524579524994,0.22597284615039825
1684108460412094700,6.1820947265625,-0.058979544788599014,0.23820790648460388,0.06125945597887039
1684108460422111700,6.19211181640625,-0.023246850818395615,0.15646350383758545,-0.030122388154268265
1684108460432129500,6.202129638671875,0.05688532814383507,0.09969929605722427,-0.07652825117111206
1684108460442147800,6.21214794921875,0.08279761672019958,0.030327945947647095,-0.10069750249385834
1684108460452164600,6.22216455078125,0.03214583545923233,-0.06169199198484421,-0.11708098649978638
1684108460462182700,6.2321826171875,-0.03403238579630852,-0.16581600904464722,-0.10419367998838425
1684108460472199700,6.24219970703125,-0.08834606409072876,-0.23333370685577393,-0.05798035115003586
1684108460482217700,6.2522177734375,-0.11193288117647171,-0.2347707450389862,0.022307027131319046
1684108460492234800,6.26223486328125,-0.10472454875707626,-0.13755932450294495,0.11148504912853241
1684108460502252800,6.272252685546875,-0.07037403434515,0.017275262624025345,0.19410189986228943
1684108460512269800,6.282269775390625,-0.05009545013308525,0.15388238430023193,0.24946556985378265
1684108460522287600,6.29228759765625,-0.06146075576543808,0.21463893353939056,0.27271443605422974
1684108460532305700,6.3023056640625,-0.06667587906122208,0.21052834391593933,0.2796623706817627
1684108460542322700,6.31232275390625,-0.04195801168680191,0.18814288079738617,0.26955434679985046
1684108460552340700,6.3223408203125,-0.00002975831739604473,0.17758148908615112,0.23887008428573608
1684108460562357800,6.332357666015625,0.029491381719708443,0.1783072054386139,0.19476519525051117
1684108460572375800,6.342375732421875,0.0417078472673893,0.17342394590377808,0.16735054552555084
1684108460582392600,6.352392578125,0.03678658977150917,0.14798542857170105,0.16003218293190002
1684108460592411000,6.362410888671875,0.018577946349978447,0.07839853316545486,0.16868442296981812
1684108460602428700,6.3724287109375,-0.0009749835007824004,-0.025990985333919525,0.17346319556236267
1684108460612446000,6.382446044921875,-0.010852034203708172,-0.1323234587907791,0.15918050706386566
1684108460622463700,6.392463623046875,-0.016857994720339775,-0.18973775207996368,0.0975552350282669
1684108460632480500,6.40248046875,-0.033505287021398544,-0.1629437804222107,-0.014641978777945042
1684108460642498800,6.412498779296875,-0.06669546663761139,-0.09739592671394348,-0.1350749284029007
1684108460652515600,6.422515625,-0.10237156599760056,-0.10620211064815521,-0.19624364376068115
1684108460662534000,6.432533935546875,-0.11867916584014893,-0.18758538365364075,-0.17251567542552948
1684108460672550700,6.442550537109375,-0.10483814775943756,-0.285340279340744,-0.0945831909775734
1684108460682568700,6.452568603515625,-0.07329592853784561,-0.36586788296699524,0.00635833665728569
1684108460692586800,6.462586669921875,-0.059373900294303894,-0.41928499937057495,0.11004109680652618
1684108460702603800,6.472603759765625,-0.052880048751831055,-0.442626029253006,0.2144729644060135
1684108460712621600,6.48262158203125,-0.0542546845972538,-0.40737587213516235,0.303169846534729
1684108460722638600,6.492638671875,-0.07701539248228073,-0.26956555247306824,0.32689303159713745
1684108460732656600,6.50265673828125,-0.1001979261636734,-0.013968057930469513,0.23859192430973053
1684108460742673700,6.512673583984375,-0.10236521065235138,0.27594685554504395,0.06794082373380661
1684108460752691700,6.522691650390625,-0.08609720319509506,0.4092477262020111,-0.07403936982154846
1684108460762709500,6.53270947265625,-0.04813650622963905,0.31637319922447205,-0.12504716217517853
1684108460772726800,6.542726806640625,0.01849919557571411,0.07057558745145798,-0.09075715392827988
1684108460782744600,6.55274462890625,0.08885884284973145,-0.19764307141304016,-0.012210415676236153
1684108460792761900,6.562761962890625,0.11638886481523514,-0.36830198764801025,0.06150045618414879
1684108460802779600,6.572779541015625,0.08884858340024948,-0.4174783229827881,0.09964917600154877
1684108460812797000,6.582796875,0.049175478518009186,-0.34341633319854736,0.11125417053699493
1684108460822814700,6.592814697265625,0.009640318341553211,-0.20314578711986542,0.12488875538110733
1684108460832831700,6.602831787109375,-0.02679707482457161,-0.05681663379073143,0.16153931617736816
1684108460842849500,6.612849609375,-0.04027799516916275,0.05055269971489906,0.21576394140720367
1684108460852867600,6.62286767578125,-0.05156432464718819,0.10700719058513641,0.28167852759361267
1684108460862884600,6.632884521484375,-0.05791676044464111,0.13745059072971344,0.34428223967552185
1684108460872902400,6.64290234375,-0.06379648298025131,0.18896862864494324,0.38470691442489624
1684108460882919400,6.65291943359375,-0.058226753026247025,0.32451340556144714,0.3511068820953369
1684108460892937500,6.6629375,-0.047726623713970184,0.5318384170532227,0.21343301236629486
1684108460902954500,6.67295458984375,-0.05577336624264717,0.6639184355735779,0.009030074812471867
1684108460912972500,6.68297265625,-0.06117139756679535,0.5573580265045166,-0.12096671760082245
1684108460922990600,6.692990478515625,-0.03777552768588066,0.24311941862106323,-0.14340119063854218
1684108460933007400,6.70300732421875,0.0013069516280665994,-0.1463383436203003,-0.07942062616348267
1684108460943025700,6.713025634765625,0.017452631145715714,-0.4626891314983368,0.018856942653656006
1684108460953042400,6.72304248046875,0.022786932066082954,-0.6370496153831482,0.11952077597379684
1684108460963060700,6.733060791015625,0.02888903208076954,-0.685258150100708,0.1929883360862732
1684108460973077500,6.743077392578125,0.019685007631778717,-0.5981360673904419,0.23137177526950836
1684108460983095300,6.75309521484375,0.002436511917039752,-0.3472183644771576,0.2037864774465561
1684108460993112600,6.763112548828125,-0.021485816687345505,0.0840524286031723,0.056002140045166016
1684108461003130400,6.77313037109375,-0.05764861777424812,0.493362694978714,-0.16202685236930847
1684108461013148700,6.783148681640625,-0.08974412828683853,0.6755797266960144,-0.3247547745704651
1684108461023165400,6.79316552734375,-0.11401218175888062,0.6143163442611694,-0.38547828793525696
1684108461033183500,6.80318359375,-0.11241940408945084,0.3564305305480957,-0.336872398853302
1684108461043200500,6.813200439453125,-0.0862322747707367,-0.007880070246756077,-0.20959806442260742
1684108461053218600,6.823218505859375,-0.0427260547876358,-0.32707875967025757,-0.05629599094390869
1684108461063235600,6.833235595703125,-0.00030349803273566067,-0.5070362687110901,0.0666336640715599
1684108461073253400,6.84325341796875,0.03894689679145813,-0.5142557621002197,0.1444244235754013
1684108461083271400,6.853271484375,0.08025332540273666,-0.3607628345489502,0.15659159421920776
1684108461093288400,6.863288330078125,0.0987195074558258,-0.08418744802474976,0.09335155785083771
1684108461103306500,6.873306396484375,0.07401442527770996,0.18333426117897034,-0.039465878158807755
1684108461113323500,6.883323486328125,0.05627645179629326,0.3239147365093231,-0.15717554092407227
1684108461123341600,6.893341552734375,0.05918169394135475,0.34428417682647705,-0.21742209792137146
1684108461133358600,6.903358642578125,0.06535489857196808,0.2772156596183777,-0.20923474431037903
1684108461143376600,6.913376708984375,0.0641213208436966,0.15779925882816315,-0.15584075450897217
1684108461153393400,6.923393310546875,0.06669721007347107,0.0019226698204874992,-0.07162590324878693
1684108461163411700,6.93341162109375,0.06653822213411331,-0.1251756250858307,0.007993824779987335
1684108461173429500,6.943429443359375,0.05677514150738716,-0.18390826880931854,0.0632021352648735
1684108461183446500,6.953446533203125,0.044645242393016815,-0.14957691729068756,0.07361030578613281
1684108461193464600,6.963464599609375,0.02964981459081173,-0.04728517681360245,0.034584131091833115
1684108461203481300,6.9734814453125,0.0016562639502808452,0.04692121595144272,-0.028304288163781166
1684108461213499600,6.983499755859375,-0.032960444688797,0.10426750779151917,-0.08182353526353836
1684108461223516400,6.993516357421875,-0.05056367069482803,0.12061718106269836,-0.10291364043951035
1684108461233534500,7.003534423828125,-0.04719230532646179,0.09707901626825333,-0.08119750767946243
1684108461243552500,7.013552490234375,-0.036676812916994095,0.05047396197915077,-0.026252506300807
1684108461253569500,7.023569580078125,-0.022897187620401382,0.005330806598067284,0.03524336963891983
1684108461263587600,7.033587646484375,-0.005416997242718935,0.002359517849981785,0.08023055642843246
1684108461273604400,7.043604248046875,0.012753888964653015,0.04344658553600311,0.0835295096039772
1684108461283622400,7.053622314453125,0.020080778747797012,0.0914737656712532,0.05058380961418152
1684108461293639400,7.063639404296875,0.004782235249876976,0.1250726580619812,0.013773870654404163
1684108461303657500,7.073657470703125,-0.013405290432274342,0.14638006687164307,-0.0016511580906808376
1684108461313674500,7.083674560546875,-0.028577908873558044,0.14746922254562378,0.010902529582381248
1684108461323692500,7.093692626953125,-0.028997888788580894,0.13130515813827515,0.05309605225920677
1684108461333710300,7.10371044921875,-0.0037112899590283632,0.09953658282756805,0.1014617532491684
1684108461343727600,7.1137275390625,0.026655670255422592,0.061810772866010666,0.1296483725309372
1684108461353745400,7.123745361328125,0.042693108320236206,0.025400567799806595,0.12155027687549591
1684108461363762700,7.1337626953125,0.05064237862825394,0.01743851602077484,0.08034398406744003
1684108461373780500,7.143780517578125,0.0556807667016983,0.06830257922410965,0.03383507952094078
1684108461383797500,7.153797607421875,0.06058045104146004,0.16875141859054565,-0.009813331998884678
1684108461393815600,7.163815673828125,0.05212065577507019,0.26470085978507996,-0.03368004783987999
1684108461403833300,7.173833251953125,0.04483317956328392,0.30455851554870605,-0.031125279143452644
1684108461413850600,7.1838505859375,0.04454214498400688,0.2692149877548218,-0.009675322100520134
1684108461423868400,7.193868408203125,0.06226388365030289,0.17162320017814636,0.012148483656346798
1684108461433885700,7.2038857421875,0.07845256477594376,0.03994932770729065,0.02573096938431263
1684108461443903500,7.213903564453125,0.07974898815155029,-0.07302702218294144,0.00888247974216938
1684108461453920500,7.22392041015625,0.05580643564462662,-0.15819625556468964,-0.025856873020529747
1684108461463938600,7.2339384765625,0.03523937240242958,-0.18451760709285736,-0.06926319748163223
1684108461473955300,7.243955322265625,0.03021063283085823,-0.14838960766792297,-0.10911097377538681
1684108461483973400,7.253973388671875,0.028312331065535545,-0.07803847640752792,-0.13504484295845032
1684108461493991700,7.26399169921875,0.02250581979751587,0.001133219338953495,-0.13932785391807556
1684108461504008400,7.274008544921875,0.01907913014292717,0.06441285461187363,-0.11110448092222214
1684108461514026500,7.284026611328125,0.021911248564720154,0.11673314869403839,-0.04871896281838417
1684108461524043500,7.29404345703125,0.025061236694455147,0.15328502655029297,0.02602691389620304
1684108461534061300,7.304061279296875,0.023074112832546234,0.14579159021377563,0.09377817064523697
1684108461544078600,7.31407861328125,0.01672753319144249,0.09641340374946594,0.13617222011089325
1684108461554096400,7.324096435546875,0.009970386512577534,0.0448727123439312,0.1482265442609787
1684108461564114700,7.33411474609375,0.013657533563673496,0.04002975672483444,0.1260160505771637
1684108461574131500,7.34413134765625,0.01667698100209236,0.06894324719905853,0.07496645301580429
1684108461584149500,7.3541494140625,0.012143215164542198,0.10856708884239197,0.011121959425508976
1684108461594166500,7.36416650390625,0.00396006228402257,0.10886456072330475,-0.05119945853948593
1684108461604184300,7.374184326171875,-0.004252327606081963,0.062111977487802505,-0.09411709755659103
1684108461614201600,7.38420166015625,-0.006413702387362719,-0.026189036667346954,-0.11043183505535126
1684108461624219400,7.394219482421875,-0.00574418343603611,-0.128797709941864,-0.10193688422441483
1684108461634236700,7.404236572265625,-0.008585083298385143,-0.21519607305526733,-0.07785635441541672
1684108461644254500,7.41425439453125,-0.00695336377248168,-0.23691892623901367,-0.06633791327476501
1684108461654272500,7.4242724609375,-0.016866182908415794,-0.1944795846939087,-0.07758444547653198
1684108461664289500,7.43428955078125,-0.030785726383328438,-0.141551673412323,-0.09166990220546722
1684108461674307600,7.4443076171875,-0.03132295608520508,-0.10086620599031448,-0.08392827212810516
1684108461684324600,7.45432470703125,-0.015259300358593464,-0.06367329508066177,-0.04158401861786842
1684108461694342700,7.4643427734375,0.00506468303501606,-0.025193369016051292,0.007219656836241484
1684108461704359400,7.474359375,0.0157127995043993,0.004300074651837349,0.061341214925050735
1684108461714377500,7.48437744140625,0.009995084255933762,0.033941857516765594,0.08562849462032318
1684108461724395500,7.4943955078125,-0.008212149143218994,0.05676381662487984,0.09221155941486359
1684108461734412500,7.50441259765625,-0.02662682719528675,0.05051053315401077,0.09928038716316223
1684108461744430600,7.5144306640625,-0.03846191614866257,0.022059185430407524,0.11779920756816864
1684108461754447400,7.524447265625,-0.0216097142547369,-0.02420160546898842,0.13502107560634613
1684108461764465700,7.534465576171875,0.016688672825694084,-0.07724857330322266,0.12342540919780731
1684108461774482400,7.544482421875,0.04967328906059265,-0.1146615594625473,0.06534651666879654
1684108461784500500,7.55450048828125,0.04700320586562157,-0.14334885776042938,-0.017802435904741287
1684108461794517500,7.564517578125,0.021405605599284172,-0.14670540392398834,-0.0856577530503273
1684108461804535300,7.574535400390625,-0.005291784182190895,-0.12529785931110382,-0.10062791407108307
1684108461814553600,7.5845537109375,-0.02325138822197914,-0.08035293221473694,-0.04314544424414635
1684108461824570400,7.5945703125,-0.027564911171793938,-0.018504485487937927,0.06490299850702286
1684108461834588400,7.60458837890625,-0.031708572059869766,0.04047112911939621,0.1815347522497177
1684108461844605000,7.61460498046875,-0.04576393589377403,0.0852910578250885,0.2566015422344208
1684108461854623000,7.624623046875,-0.058590155094861984,0.10474962741136551,0.2765708267688751
1684108461864640000,7.634639892578125,-0.06516709923744202,0.10270938277244568,0.24582330882549286
1684108461874658000,7.644657958984375,-0.06472954154014587,0.0757366195321083,0.208043172955513
1684108461884676000,7.654676025390625,-0.061792608350515366,0.00958928931504488,0.19001543521881104
1684108461894692900,7.66469287109375,-0.04699840024113655,-0.053194642066955566,0.19685134291648865
1684108461904711000,7.6747109375,-0.03551618382334709,-0.09199929982423782,0.21861577033996582
1684108461914728000,7.68472802734375,-0.03197846561670303,-0.08058898150920868,0.23276308178901672
1684108461924746000,7.69474609375,-0.03504030033946037,0.0019114874303340912,0.2153630405664444
1684108461934763000,7.704762939453125,-0.03593190014362335,0.11831159889698029,0.1969086080789566
1684108461944781000,7.714781005859375,-0.03160319849848747,0.19248196482658386,0.22151434421539307
1684108461954798000,7.724798095703125,-0.033626776188611984,0.19664280116558075,0.2933674454689026
1684108461964816100,7.734816162109375,-0.06629657000303268,0.16448938846588135,0.35710808634757996
1684108461974834000,7.744833984375,-0.0942404568195343,0.15571019053459167,0.3533713221549988
1684108461984851200,7.754851318359375,-0.09421249479055405,0.20588228106498718,0.26179665327072144
1684108461994869000,7.764868896484375,-0.08300177752971649,0.2428172081708908,0.12391158938407898
1684108462004886000,7.774885986328125,-0.07460030168294907,0.16315221786499023,0.02263609506189823
1684108462014904000,7.784904052734375,-0.06516542285680771,-0.011261308565735817,0.008581303991377354
1684108462024920800,7.7949208984375,-0.04868924245238304,-0.20855386555194855,0.050653126090765
1684108462034939100,7.804939208984375,-0.05710888281464577,-0.35634198784828186,0.11767611652612686
1684108462044957000,7.81495703125,-0.07971300184726715,-0.40702301263809204,0.1618315875530243
1684108462054974000,7.824973876953125,-0.07978762686252594,-0.3509725332260132,0.16382737457752228
1684108462064992000,7.834991943359375,-0.08149737864732742,-0.23499372601509094,0.11063073575496674
1684108462075009000,7.845009033203125,-0.079531230032444,-0.08823642879724503,0.023165151476860046
1684108462085027000,7.855027099609375,-0.07201419025659561,0.030777577310800552,-0.04091023653745651
1684108462095043800,7.8650439453125,-0.06469248980283737,0.06558305025100708,-0.052116986364126205
1684108462105062000,7.875061767578125,-0.06814074516296387,0.030484450981020927,-0.021079976111650467
1684108462115080200,7.885080078125,-0.07113520056009293,-0.032198190689086914,0.03221726417541504
1684108462125097000,7.895096923828125,-0.05826866626739502,-0.08018995076417923,0.09932813048362732
1684108462135115000,7.905114990234375,-0.036231879144907,-0.0920630395412445,0.16160650551319122
1684108462145132000,7.915132080078125,-0.002911739517003298,-0.04801701381802559,0.20482374727725983
1684108462155149800,7.92514990234375,0.025170866400003433,0.0165167935192585,0.21280580759048462
1684108462165167000,7.9351669921875,0.04385214298963547,0.06550191342830658,0.19043739140033722
1684108462175185000,7.945184814453125,0.047073908150196075,0.07046746462583542,0.1387692391872406
1684108462185202200,7.9552021484375,0.0393504723906517,0.02872028574347496,0.07465629279613495
1684108462195220000,7.965219970703125,0.027158290147781372,-0.05648302286863327,0.014021764509379864
1684108462205238000,7.975238037109375,0.04049007222056389,-0.15031205117702484,-0.02478794939815998
1684108462215255000,7.985255126953125,0.047540295869112015,-0.23558388650417328,-0.05978895351290703
1684108462225272800,7.99527294921875,0.0167688000947237,-0.26007431745529175,-0.10548906028270721
1684108462235290000,8.0052900390625,-0.01908101700246334,-0.16277652978897095,-0.17448171973228455
1684108462245308000,8.015307861328125,-0.03494546562433243,0.003108575940132141,-0.2668699622154236
1684108462255325200,8.0253251953125,-0.03836305812001228,0.0784599632024765,-0.3240238130092621
1684108462265343000,8.035343017578125,-0.029995139688253403,-0.027193225920200348,-0.3343544900417328
1684108462275361000,8.045361083984375,-0.03242834284901619,-0.26411452889442444,-0.31159842014312744
1684108462285378000,8.0553779296875,-0.042761676013469696,-0.515758216381073,-0.2557719051837921
1684108462295396000,8.06539599609375,-0.040585536509752274,-0.6787213683128357,-0.17299693822860718
1684108462305413000,8.0754130859375,-0.03557799383997917,-0.7243536114692688,-0.08684846758842468
1684108462315431200,8.08543115234375,-0.02920631133019924,-0.6380699276924133,-0.01689157821238041
1684108462325448000,8.095447998046875,-0.037287939339876175,-0.4328499138355255,-0.010417965240776539
1684108462335466000,8.105466064453125,-0.05682053416967392,-0.11962337791919708,-0.10268546640872955
1684108462345484000,8.115484130859375,-0.07683499157428741,0.20008139312267303,-0.2643880844116211
1684108462355501000,8.1255009765625,-0.09950791299343109,0.3269239366054535,-0.38346365094184875
1684108462365519000,8.13551904296875,-0.10851579159498215,0.2073938101530075,-0.3986596465110779
1684108462375535900,8.145535888671875,-0.108193539083004,-0.05517638847231865,-0.31636324524879456
1684108462385554200,8.15555419921875,-0.10573677718639374,-0.3341350555419922,-0.1766471564769745
1684108462395571000,8.165571044921874,-0.10347191244363785,-0.5496180057525635,-0.022246623411774635
1684108462405589000,8.175589111328126,-0.10621337592601776,-0.6631141901016235,0.11596238613128662
1684108462415606000,8.18560595703125,-0.11739073693752289,-0.6627742052078247,0.21031193435192108
1684108462425623800,8.195623779296875,-0.12657597661018372,-0.5374394655227661,0.2323429435491562
1684108462435642000,8.20564208984375,-0.12332776933908463,-0.3044893443584442,0.17975345253944397
1684108462445659000,8.215658935546875,-0.0976351872086525,-0.04185348376631737,0.08832712471485138
1684108462455677000,8.225677001953125,-0.05637774243950844,0.15012644231319427,0.016223231330513954
1684108462465694000,8.23569384765625,-0.009105836041271687,0.21149738132953644,-0.000394359725760296
1684108462475712000,8.2457119140625,0.03432750701904297,0.1751585453748703,0.03576148301362991
1684108462485729000,8.25572900390625,0.06486491113901138,0.09765416383743286,0.10847696661949158
1684108462495747000,8.2657470703125,0.07834502309560776,0.018344787880778313,0.1909591257572174
1684108462505764900,8.275764892578126,0.06877042353153229,-0.056737713515758514,0.2695271670818329
1684108462515782100,8.2857822265625,0.06333434581756592,-0.09650607407093048,0.3150157034397125
1684108462525800000,8.295800048828125,0.07354197651147842,-0.060717981308698654,0.3072826862335205
1684108462535817000,8.30581689453125,0.08640173077583313,0.11550009995698929,0.2196759730577469
1684108462545835000,8.3158349609375,0.05909421294927597,0.4853835999965668,0.010492920875549316
1684108462555852000,8.32585205078125,0.01582219824194908,0.8223328590393066,-0.227523073554039
1684108462565870000,8.3358701171875,-0.014556746929883957,0.8967370390892029,-0.3823286294937134
1684108462575888000,8.345887939453124,-0.04022051766514778,0.7179455161094666,-0.4213401675224304
1684108462585905200,8.3559052734375,-0.08290326595306396,0.3390169143676758,-0.3435223400592804
1684108462595923000,8.3659228515625,-0.10400199145078659,-0.10451651364564896,-0.17694009840488434
1684108462605940200,8.375940185546876,-0.06422741711139679,-0.5001402497291565,0.019311700016260147
1684108462615958000,8.3859580078125,-0.01453553419560194,-0.8154259920120239,0.21107661724090576
1684108462625974800,8.395974853515625,0.005042429082095623,-1.0211479663848877,0.3774770498275757
1684108462635993000,8.4059931640625,-0.0036928921472281218,-1.074006199836731,0.49881643056869507
1684108462646011100,8.41601123046875,-0.016103221103549004,-0.920651376247406,0.5446071028709412
1684108462656028200,8.426028076171875,-0.023660890758037567,-0.5340086221694946,0.4846547842025757
1684108462666046000,8.4360458984375,-0.029680168256163597,0.012133320793509483,0.32471171021461487
1684108462676063000,8.44606298828125,-0.02323576994240284,0.46954357624053955,0.15085507929325104
1684108462686081000,8.4560810546875,0.041063860058784485,0.6829783320426941,0.04608658701181412
1684108462696098000,8.46609814453125,0.12263550609350204,0.6843902468681335,0.002537623979151249
1684108462706115800,8.47611572265625,0.19461144506931305,0.5564477443695068,0.003230312140658498
1684108462716133000,8.486133056640625,0.248933807015419,0.3572520911693573,0.025405921041965485
1684108462726151000,8.49615087890625,0.2990262508392334,0.16129298508167267,0.04938741773366928
1684108462736169200,8.506169189453125,0.34666720032691956,0.04530831798911095,0.05286639556288719
1684108462746186000,8.51618603515625,0.36941057443618774,0.06258317828178406,0.01199859194457531
1684108462756203800,8.526203857421875,0.3486408591270447,0.19235262274742126,-0.07587134093046188
1684108462766221000,8.536220947265624,0.30206748843193054,0.31449398398399353,-0.1867334097623825
1684108462776238800,8.54623876953125,0.2613523006439209,0.37170764803886414,-0.28780949115753174
1684108462786256100,8.556256103515626,0.26053205132484436,0.3491418957710266,-0.363100528717041
1684108462796274000,8.56627392578125,0.2805628776550293,0.2754214107990265,-0.40546852350234985
1684108462806292000,8.5762919921875,0.2915468215942383,0.17243057489395142,-0.41992947459220886
1684108462816309000,8.58630908203125,0.27604940533638,0.0707845613360405,-0.4104504883289337
1684108462826327000,8.5963271484375,0.2360769510269165,0.01694263517856598,-0.36746281385421753
1684108462836344000,8.606343994140625,0.15463398396968842,0.031175896525382996,-0.29042160511016846
1684108462846361300,8.616361328125,0.06655073910951614,0.10158348083496094,-0.16769731044769287
1684108462856378400,8.62637841796875,0.034549880772829056,0.20697027444839478,-0.021021105349063873
1684108462866396400,8.636396484375,0.030860871076583862,0.3251190185546875,0.11634394526481628
1684108462876414200,8.646414306640626,0.0035730465315282345,0.47335731983184814,0.19649744033813477
1684108462886431500,8.656431396484376,-0.052012450993061066,0.7104265689849854,0.17439773678779602
1684108462896449300,8.66644921875,-0.11141334474086761,1.0822408199310303,0.03641480207443237
1684108462906466300,8.67646630859375,-0.15524311363697052,1.3477364778518677,-0.12274502962827682
1684108462916484400,8.686484375,-0.14446355402469635,1.241542100906372,-0.1816330850124359
1684108462926501400,8.69650146484375,-0.09715250134468079,0.777917206287384,-0.12277242541313171
1684108462936519400,8.70651953125,-0.0600312277674675,0.1577061414718628,-0.008440262638032436
1684108462946536200,8.7165361328125,-0.002257412066683173,-0.3741750419139862,0.09279394894838333
1684108462956554500,8.726554443359374,0.08621367067098618,-0.6958176493644714,0.1712798774242401
1684108462966572300,8.736572265625,0.16492153704166412,-0.780515730381012,0.19842840731143951
1684108462976589600,8.746589599609376,0.18402358889579773,-0.6213111877441406,0.1327735036611557
1684108462986607400,8.756607421875,0.14725172519683838,-0.2410929948091507,-0.052420053631067276
1684108462996624100,8.7666240234375,0.11938915401697159,0.1826360821723938,-0.29130834341049194
1684108463006642400,8.776642333984375,0.10712342709302902,0.4088590741157532,-0.46523699164390564
1684108463016659200,8.7866591796875,0.09828945249319077,0.4149716794490814,-0.5340545773506165
1684108463026677200,8.79667724609375,0.08472757041454315,0.2954207956790924,-0.4976862072944641
1684108463036695300,8.8066953125,0.057199057191610336,0.06199230998754501,-0.3709796369075775
1684108463046712300,8.81671240234375,-0.011987467296421528,-0.24327147006988525,-0.1718071699142456
1684108463056730400,8.82673046875,-0.05694534257054329,-0.46825698018074036,0.01574881002306938
1684108463066747400,8.836747314453126,-0.053605206310749054,-0.5786074995994568,0.1852656602859497
1684108463076765200,8.84676513671875,-0.02022329345345497,-0.6165809035301208,0.3497369885444641
1684108463086782500,8.856782470703125,0.02966543659567833,-0.6085863709449768,0.4963892698287964
1684108463096800300,8.86680029296875,0.03708009421825409,-0.5280153155326843,0.6033506393432617
1684108463106818600,8.876818603515625,0.029471442103385925,-0.34036368131637573,0.6267891526222229
1684108463116835300,8.88683544921875,0.06081923097372055,0.04575137794017792,0.5278727412223816
1684108463126853000,8.89685302734375,0.08172637969255447,0.5298604965209961,0.3252224028110504
1684108463136870400,8.906870361328124,0.0834922045469284,0.8407933712005615,0.11213280260562897
1684108463146888200,8.91688818359375,0.09634115546941757,0.9532357454299927,-0.07336675375699997
1684108463156905500,8.926905517578126,0.11726205796003342,0.960756778717041,-0.23428671061992645
1684108463166923300,8.93692333984375,0.1351688802242279,0.9220365285873413,-0.3751857876777649
1684108463176941300,8.94694140625,0.161070317029953,0.7922313809394836,-0.44262367486953735
1684108463186958300,8.956958251953125,0.17586204409599304,0.4930713474750519,-0.39327824115753174
1684108463196976400,8.966976318359375,0.1582232117652893,0.08251374214887619,-0.23404932022094727
1684108463206993400,8.976993408203125,0.10059799998998642,-0.33318305015563965,-0.02209472469985485
1684108463217011500,8.987011474609375,0.06265229731798172,-0.611353874206543,0.17108257114887238
1684108463227028500,8.997028564453124,0.039629269391298294,-0.7003801465034485,0.3201058804988861
1684108463237046300,9.00704638671875,0.0008724734652787447,-0.5523465871810913,0.3744544982910156
1684108463247063300,9.017063232421876,-0.05700360983610153,-0.11202191561460495,0.28460928797721863
1684108463257081300,9.027081298828126,-0.11073106527328491,0.4197925925254822,0.10969894379377365
1684108463267099400,9.037099365234376,-0.13585852086544037,0.6871569156646729,-0.010153695940971375
1684108463277116400,9.047116455078125,-0.11681987345218658,0.677007257938385,-0.03579127788543701
1684108463287134500,9.057134521484375,-0.06790399551391602,0.5180306434631348,0.0033057918772101402
1684108463297151200,9.067151123046875,-0.02251438982784748,0.31582173705101013,0.08045929670333862
1684108463307169500,9.07716943359375,0.012912044301629066,0.1460936963558197,0.13868744671344757
1684108463317186300,9.087186279296875,0.01916835457086563,0.04013308510184288,0.14938075840473175
1684108463327204400,9.097204345703124,0.015076139941811562,-0.022538816556334496,0.12099973112344742
1684108463337222400,9.107222412109374,0.0060185217298567295,-0.03742402419447899,0.06341897696256638
1684108463347239200,9.1172392578125,0.008431878872215748,-0.007168650161474943,0.006231585051864386
1684108463357257500,9.127257568359376,0.017316821962594986,0.07905074208974838,-0.02912716567516327
1684108463367274200,9.137274169921875,0.005593587178736925,0.16080686450004578,-0.029652073979377747
1684108463377292300,9.147292236328125,-0.02128889411687851,0.17596742510795593,0.025650329887866974
1684108463387309300,9.157309326171875,-0.03986763581633568,0.1173669770359993,0.11453653126955032
1684108463397327400,9.167327392578125,-0.040566060692071915,0.014738605357706547,0.1981990486383438
1684108463407345400,9.177345458984375,-0.013031638227403164,-0.05265854299068451,0.22797344624996185
1684108463417362400,9.187362548828125,0.031405914574861526,-0.02969961240887642,0.18421217799186707
1684108463427380200,9.197380126953124,0.06150069832801819,0.03298454359173775,0.07022115588188171
1684108463437397200,9.207397216796876,0.0707748681306839,0.08609320968389511,-0.06987402588129044
1684108463447415300,9.217415283203126,0.057699013501405716,0.07198617607355118,-0.19761361181735992
1684108463457432300,9.227432373046875,0.037494756281375885,-0.02026989310979843,-0.25748351216316223
1684108463467450400,9.237450439453125,0.004549591802060604,-0.18334536254405975,-0.23527087271213531
1684108463477468200,9.24746826171875,-0.0461890809237957,-0.3591000735759735,-0.16085512936115265
1684108463487485400,9.2574853515625,-0.08501344174146652,-0.4826422333717346,-0.06736698746681213
1684108463497503200,9.267503173828125,-0.08975693583488464,-0.5376677513122559,0.015152824111282825
1684108463507520500,9.2775205078125,-0.06728118658065796,-0.5110697150230408,0.08553990721702576
1684108463517538300,9.287538330078124,-0.043895173817873,-0.41554319858551025,0.1232268363237381
1684108463527555300,9.297555419921874,-0.0311274453997612,-0.2363225519657135,0.13070125877857208
1684108463537573400,9.307573486328126,-0.01893482357263565,0.03110603615641594,0.09538730978965759
1684108463547591400,9.31759130859375,0.02071671560406685,0.2976500988006592,0.03785077854990959
1684108463557608400,9.3276083984375,0.040000446140766144,0.40876659750938416,-0.01133615430444479
1684108463567626200,9.337626220703125,0.03107193298637867,0.330689400434494,-0.027700480073690414
1684108463577643500,9.3476435546875,0.004199618939310312,0.15557490289211273,-0.017466697841882706
1684108463587661300,9.357661376953125,-0.03428545594215393,-0.017063980922102928,0.01121102087199688
1684108463597678300,9.36767822265625,-0.07315481454133987,-0.15636886656284332,0.03261498734354973
1684108463607696400,9.3776962890625,-0.09217804670333862,-0.2654740512371063,0.0483955480158329
1684108463617714400,9.38771435546875,-0.07090175151824951,-0.3283230662345886,0.06299412250518799
1684108463627731200,9.397731201171876,-0.026169970631599426,-0.35632994771003723,0.06371210515499115
1684108463637749500,9.40774951171875,0.01780558004975319,-0.3342737853527069,0.051447220146656036
1684108463647766300,9.417766357421876,0.025726087391376495,-0.25731804966926575,-0.004233883693814278
1684108463657784300,9.427784423828125,-0.013581730425357819,-0.12872456014156342,-0.09473512321710587
1684108463667801300,9.43780126953125,-0.0840846598148346,-0.020679308101534843,-0.17085839807987213
1684108463677819100,9.447819091796875,-0.13455943763256073,-0.041700441390275955,-0.17421241104602814
1684108463687837400,9.45783740234375,-0.136053204536438,-0.172525554895401,-0.10383731126785278
1684108463697854200,9.467854248046875,-0.0889274924993515,-0.3259375989437103,-0.018398910760879517
1684108463707872500,9.47787255859375,-0.02314101904630661,-0.44105592370033264,0.05094660446047783
1684108463717889300,9.48788916015625,0.02945876121520996,-0.48503199219703674,0.06845683604478836
1684108463727907300,9.4979072265625,0.05669757351279259,-0.4358729422092438,0.03223598375916481
1684108463737924400,9.50792431640625,0.048547398298978806,-0.29185497760772705,-0.06055278703570366
1684108463747942400,9.5179423828125,0.02004438452422619,-0.12519249320030212,-0.17813988029956818
1684108463757959400,9.52795947265625,-0.010520496405661106,-0.05708516389131546,-0.24868519604206085
1684108463767977200,9.537977294921875,-0.015458795242011547,-0.10624578595161438,-0.24743616580963135
1684108463777995300,9.547995361328125,-0.008444457314908504,-0.2254812866449356,-0.18857307732105255
1684108463788012300,9.55801220703125,-0.00044432090362533927,-0.3474167585372925,-0.10290797799825668
1684108463798030300,9.5680302734375,0.019782595336437225,-0.4229128360748291,-0.01287101861089468
1684108463808047400,9.57804736328125,0.03974618390202522,-0.4288889765739441,0.07546789944171906
1684108463818065400,9.5880654296875,0.05635317042469978,-0.3473181426525116,0.14682921767234802
1684108463828082400,9.59808251953125,0.05778329074382782,-0.13660883903503418,0.1701286882162094
1684108463838100500,9.6081005859375,0.0427422896027565,0.24002525210380554,0.11695787310600281
1684108463848118800,9.618118896484376,0.00849962793290615,0.6411819458007812,-0.00003798927355092019
1684108463858136000,9.628135986328125,-0.03449530154466629,0.8282085657119751,-0.11298369616270065
1684108463868153900,9.63815380859375,-0.05039650574326515,0.7041518688201904,-0.17600581049919128
1684108463878170600,9.648170654296875,-0.05192183703184128,0.3465060591697693,-0.20020712912082672
1684108463888189000,9.65818896484375,-0.038235850632190704,-0.11827759444713593,-0.1839676946401596
1684108463898205700,9.668205810546874,-0.011312589980661869,-0.5096413493156433,-0.09695310890674591
1684108463908223700,9.6782236328125,0.02247599884867668,-0.713410496711731,0.020610272884368896
1684108463918241800,9.68824169921875,0.04187701269984245,-0.7269394397735596,0.12459109723567963
1684108463928258800,9.6982587890625,0.06338497251272202,-0.5858116149902344,0.1572829931974411
1684108463938276900,9.70827685546875,0.07606570422649384,-0.31694096326828003,0.08711407333612442
1684108463948294000,9.7182939453125,0.06490812450647354,0.024610230699181557,-0.07130752503871918
1684108463958311700,9.728311767578125,0.018472447991371155,0.23025712370872498,-0.24341005086898804
1684108463968329000,9.738328857421875,-0.023279793560504913,0.21177345514297485,-0.32903385162353516
1684108463978346800,9.7483466796875,-0.03667618706822395,0.0656457245349884,-0.31556788086891174
1684108463988365000,9.758364990234375,-0.023798208683729172,-0.1259482055902481,-0.22181902825832367
1684108463998381800,9.7683818359375,-0.00039342138916254044,-0.2764480710029602,-0.06660131365060806
1684108464008399600,9.778399658203124,0.0013799775624647737,-0.28390729427337646,0.12145141512155533
1684108464018417000,9.7884169921875,-0.03308812528848648,-0.08504169434309006,0.25948187708854675
1684108464028434700,9.7984345703125,-0.07217400521039963,0.14248013496398926,0.2938145697116852
1684108464038452000,9.808451904296875,-0.09081665426492691,0.24906030297279358,0.221185564994812
1684108464048469800,9.8184697265625,-0.09676428884267807,0.26147860288619995,0.065792515873909
1684108464058487800,9.82848779296875,-0.10138874500989914,0.20712286233901978,-0.11434166878461838
1684108464068504800,9.8385048828125,-0.08157829195261002,0.10695552825927734,-0.2624187767505646
1684108464078523000,9.84852294921875,-0.03987691551446915,-0.006241069175302982,-0.3416256904602051
1684108464088540000,9.858539794921874,0.0052263811230659485,-0.05938870832324028,-0.3531896770000458
1684108464098558000,9.868557861328124,0.04641564190387726,-0.058620475232601166,-0.31531986594200134
1684108464108575000,9.878574951171874,0.05671568214893341,-0.04306095838546753,-0.2345709502696991
1684108464118592800,9.8885927734375,0.03172408044338226,-0.07826191186904907,-0.10028651356697083
1684108464128610800,9.89861083984375,-0.0143217071890831,-0.14486171305179596,0.06451548635959625
1684108464138627800,9.9086279296875,-0.04542391002178192,-0.21156270802021027,0.20367388427257538
1684108464148646000,9.91864599609375,-0.042977530509233475,-0.2558603882789612,0.27577897906303406
1684108464158663000,9.928662841796875,-0.02330678142607212,-0.23014242947101593,0.2796507179737091
1684108464168681000,9.938680908203125,-0.003172219032421708,-0.07938088476657867,0.20744603872299194
1684108464178697700,9.94869775390625,0.008693400770425797,0.19347497820854187,0.07356535643339157
1684108464188716000,9.958716064453125,0.02749478444457054,0.44611573219299316,-0.07870354503393173
1684108464198733800,9.96873388671875,0.04456139728426933,0.5754587054252625,-0.20622535049915314
1684108464208750800,9.978750732421876,0.05180679261684418,0.5672098398208618,-0.2787078022956848
1684108464218769000,9.988768798828126,0.0329534113407135,0.3978307545185089,-0.24664832651615143
1684108464228785700,9.99878564453125,-0.0009712690371088684,0.1094445139169693,-0.09268326312303543
1684108464238804000,10.008803955078125,-0.022853504866361618,-0.18631398677825928,0.124807208776474
1684108464248820700,10.01882080078125,-0.03903566673398018,-0.39282694458961487,0.2608100473880768
1684108464258838800,10.0288388671875,-0.03709046170115471,-0.45315349102020264,0.2686321437358856
1684108464268856800,10.03885693359375,-0.018280819058418274,-0.32372280955314636,0.18091294169425964
1684108464278873900,10.048873779296875,-0.02777891419827938,0.006340768188238144,0.03632957860827446
1684108464288892000,10.058891845703124,-0.05721456557512283,0.4442387521266937,-0.11946374177932739
1684108464298909000,10.068908935546874,-0.08122631162405014,0.7906187772750854,-0.2182619869709015
1684108464308926700,10.0789267578125,-0.08441971242427826,0.958021879196167,-0.219826340675354
1684108464318943700,10.08894384765625,-0.0716497004032135,0.9538695216178894,-0.1238236054778099
1684108464328961800,10.0989619140625,-0.0647430568933487,0.7695169448852539,0.06256038695573807
1684108464338979800,10.108979736328125,-0.05759580433368683,0.37629982829093933,0.30805259943008423
1684108464348996900,10.118996826171875,-0.02999080717563629,-0.0772775188088417,0.5316516160964966
1684108464359014700,10.1290146484375,0.004862060770392418,-0.41044846177101135,0.6412445306777954
1684108464369032000,10.139031982421875,0.04043203592300415,-0.5427907705307007,0.6072192192077637
1684108464379049700,10.1490498046875,0.07337073236703873,-0.40490520000457764,0.4511013627052307
1684108464389067000,10.15906689453125,0.09227252006530762,0.033747538924217224,0.17080099880695343
1684108464399084800,10.169084716796876,0.09862642735242844,0.5199939608573914,-0.15330401062965393
1684108464409102800,10.179102783203126,0.11354252696037292,0.7749437093734741,-0.40878209471702576
1684108464419119900,10.189119873046875,0.12914393842220306,0.8191173672676086,-0.5640053749084473
1684108464429138000,10.199137939453125,0.1294504702091217,0.6839286684989929,-0.6076940298080444
1684108464439155000,10.209155029296875,0.09083974361419678,0.32883456349372864,-0.5044903755187988
1684108464449172700,10.2191728515625,0.04251694679260254,-0.17485307157039642,-0.2492130547761917
1684108464459190000,10.22918994140625,0.00859673973172903,-0.6418679356575012,0.02121099829673767
1684108464469207800,10.239207763671875,0.01998494751751423,-0.9304627180099487,0.15680505335330963
1684108464479225900,10.249225830078124,0.0755801722407341,-1.0084452629089355,0.16767403483390808
1684108464489243000,10.259242919921874,0.13013769686222076,-0.9031713604927063,0.09092839807271957
1684108464499261000,10.269260986328124,0.14128835499286652,-0.5821755528450012,-0.06048170104622841
1684108464509277700,10.279277587890626,0.11188146471977234,-0.06467490643262863,-0.2644422948360443
1684108464519296000,10.2892958984375,0.05542954057455063,0.3455801010131836,-0.43028131127357483
1684108464529312800,10.299312744140625,0.01799774542450905,0.4175781011581421,-0.4403690993785858
1684108464539330800,10.309330810546875,0.02349237911403179,0.25389599800109863,-0.3141738772392273
1684108464549348900,10.319348876953125,0.0515756793320179,-0.03910048305988312,-0.11799370497465134
1684108464559365600,10.32936572265625,0.08996635675430298,-0.3718315660953522,0.050192397087812424
1684108464569384000,10.339384033203125,0.11140906810760498,-0.5920038819313049,0.12241733074188232
1684108464579400700,10.349400634765624,0.09410300105810165,-0.5790858864784241,0.06661905348300934
1684108464589419000,10.3594189453125,0.03392834961414337,-0.37561875581741333,-0.09490752220153809
1684108464599435800,10.369435791015626,-0.02898738905787468,-0.17904329299926758,-0.2809448540210724
1684108464609453800,10.379453857421876,-0.06856142729520798,-0.13897576928138733,-0.41310209035873413
1684108464619472000,10.389471923828125,-0.09688126295804977,-0.2160533368587494,-0.4482819736003876
1684108464629489000,10.399489013671875,-0.11551300436258316,-0.3077928423881531,-0.3793681561946869
1684108464639507000,10.4095068359375,-0.12035492062568665,-0.3445144593715668,-0.22930316627025604
1684108464649523700,10.419523681640625,-0.12359625846147537,-0.3089127838611603,-0.039523374289274216
1684108464659541800,10.429541748046875,-0.13129180669784546,-0.24424298107624054,0.11331859976053238
1684108464669558800,10.439558837890624,-0.1261042356491089,-0.15919147431850433,0.1933489888906479
1684108464679576800,10.449576904296874,-0.09490035474300385,-0.051288262009620667,0.19030894339084625
1684108464689594600,10.4595947265625,-0.0747668594121933,0.009811311960220337,0.11823608726263046
1684108464699612000,10.46961181640625,-0.062016334384679794,0.016086077317595482,0.02435903623700142
1684108464709629700,10.479629638671875,-0.041313450783491135,-0.0007267245091497898,-0.028309766203165054
1684108464719647000,10.48964697265625,-0.0103768827393651,-0.009823997505009174,-0.012577407993376255
1684108464729664800,10.499664794921875,0.03218575939536095,0.012115389108657837,0.057014983147382736
1684108464739681800,10.509681884765625,0.055629633367061615,0.055334147065877914,0.15193156898021698
1684108464749699800,10.519699951171875,0.05510925129055977,0.14543473720550537,0.21184203028678894
1684108464759718000,10.5297177734375,0.056410472840070724,0.2960096001625061,0.2137105017900467
1684108464769735000,10.53973486328125,0.059009451419115067,0.45697396993637085,0.1779775470495224
1684108464779752700,10.549752685546874,0.040935710072517395,0.5194942355155945,0.14042767882347107
1684108464789770000,10.55977001953125,0.02585689350962639,0.4184422194957733,0.13143178820610046
1684108464799787800,10.569787841796876,0.027757996693253517,0.21156635880470276,0.1542666256427765
1684108464809804800,10.5798046875,0.05100100114941597,0.003659498877823353,0.17653411626815796
1684108464819822800,10.58982275390625,0.09202786535024643,-0.13463321328163147,0.16064855456352234
1684108464829841000,10.5998408203125,0.12101717293262482,-0.1949724555015564,0.09995803982019424
1684108464839858000,10.60985791015625,0.1170177310705185,-0.20978505909442902,0.02106652595102787
1684108464849875700,10.619875732421875,0.07989273220300674,-0.17519432306289673,-0.04938686639070511
1684108464859892500,10.629892578125,0.027814893051981926,-0.07931198924779892,-0.07700157165527344
1684108464869910800,10.639910888671874,-0.010449403896927834,0.04633089154958725,-0.04530622810125351
1684108464879927600,10.649927490234376,-0.019582077860832214,0.13377320766448975,0.05169118940830231
1684108464889945900,10.65994580078125,0.002610576804727316,0.16828937828540802,0.15266628563404083
1684108464899963600,10.669963623046876,0.0375361405313015,0.15593664348125458,0.18364733457565308
1684108464909980700,10.679980712890625,0.035716935992240906,0.08368668705224991,0.11258967220783234
1684108464919998700,10.689998779296875,-0.01355703268200159,-0.028781620785593987,-0.02012365683913231
1684108464930015700,10.700015625,-0.059761278331279755,-0.16007733345031738,-0.14134594798088074
1684108464940033800,10.71003369140625,-0.05584059655666351,-0.25087228417396545,-0.20110954344272614
1684108464950050800,10.72005078125,-0.02632398158311844,-0.294056236743927,-0.1842717081308365
1684108464960068600,10.730068603515624,0.012083152309060097,-0.28578847646713257,-0.0937204584479332
1684108464970087000,10.7400869140625,0.047771111130714417,-0.22461088001728058,0.042258940637111664
1684108464980103700,10.750103759765626,0.05674554407596588,-0.10338190943002701,0.17663589119911194
1684108464990121700,10.760121826171876,0.01732516847550869,0.09847690910100937,0.26347947120666504
1684108465000138800,10.770138671875,-0.044716086238622665,0.35904741287231445,0.28765690326690674
1684108465010156500,10.780156494140625,-0.09607062488794327,0.6018995046615601,0.2624671161174774
1684108465020173800,10.790173828125,-0.15990044176578522,0.6603444814682007,0.211992084980011
1684108465030191600,10.800191650390625,-0.2050415575504303,0.5422269105911255,0.1406175047159195
1684108465040209700,10.810209716796875,-0.20571893453598022,0.36543500423431396,0.0568213053047657
1684108465050226700,10.820226806640624,-0.16935373842716217,0.17036831378936768,0.0014589806087315083
1684108465060244700,10.83024462890625,-0.14081278443336487,-0.020930534228682518,-0.010517019778490067
1684108465070261800,10.84026171875,-0.14106951653957367,-0.1671026647090912,0.011913720518350601
1684108465080279800,10.85027978515625,-0.1316862851381302,-0.20534227788448334,0.061687570065259933
1684108465090296800,10.860296875,-0.08977904170751572,-0.15088941156864166,0.12415307760238647
1684108465100314600,10.870314697265625,-0.042173150926828384,-0.06292431801557541,0.17239636182785034
1684108465110332700,10.880332763671875,-0.004574642516672611,0.0016821017488837242,0.1647224724292755
1684108465120349700,10.890349609375,0.023833028972148895,0.0073687490075826645,0.10550975054502487
1684108465130367700,10.90036767578125,0.019730430096387863,-0.04506569728255272,0.02872202731668949
1684108465140384800,10.910384765625,-0.01582091674208641,-0.11018442362546921,-0.04271667078137398
1684108465150402800,10.92040283203125,-0.044240038841962814,-0.14389711618423462,-0.08787482231855392
1684108465160419600,10.930419677734376,-0.05928777903318405,-0.1394563764333725,-0.0962284728884697
1684108465170438000,10.94043798828125,-0.06390144675970078,-0.1264340579509735,-0.05937299132347107
1684108465180455700,10.95045556640625,-0.053637124598026276,-0.12144400179386139,0.012934109196066856
1684108465190472700,10.96047265625,-0.018758499994874,-0.10495477169752121,0.10186424851417542
1684108465200490800,10.97049072265625,0.011898260563611984,-0.04065212979912758,0.16540546715259552
1684108465210507500,10.980507568359375,0.00879993848502636,0.0680844709277153,0.16421689093112946
1684108465220525800,10.99052587890625,-0.029902786016464233,0.17633673548698425,0.12203516811132431
1684108465230542600,11.00054248046875,-0.06148600950837135,0.2116670310497284,0.10314963012933731
1684108465240561000,11.010560791015624,-0.061449769884347916,0.18376855552196503,0.11926461011171341
1684108465250578700,11.02057861328125,-0.05015183985233307,0.1300981342792511,0.16444380581378937
1684108465260595700,11.030595703125,-0.04651921987533569,0.08003070205450058,0.22273358702659607
1684108465270613800,11.04061376953125,-0.03469585254788399,0.06804301589727402,0.2825186252593994
1684108465280630800,11.050630859375,-0.02488323673605919,0.10991145670413971,0.30050623416900635
1684108465290648600,11.060648681640625,-0.011839606799185276,0.1852075457572937,0.27780893445014954
1684108465300665600,11.07066552734375,0.0119106350466609,0.22374969720840454,0.21405699849128723
1684108465310683600,11.08068359375,0.03078099526464939,0.16104957461357117,0.14062325656414032
1684108465320701700,11.09070166015625,0.04932248219847679,0.01982346549630165,0.06881130486726761
1684108465330718700,11.10071875,0.060596175491809845,-0.14395774900913239,0.0011656831484287977
1684108465340736500,11.110736572265624,0.050069842487573624,-0.29784947633743286,-0.04876527562737465
1684108465350753800,11.12075390625,0.0226744394749403,-0.4202353060245514,-0.0717046782374382
1684108465360771600,11.130771484375,-0.014082010835409164,-0.48281294107437134,-0.06694301217794418
1684108465370788900,11.140788818359376,-0.02367365173995495,-0.46371302008628845,-0.03461277112364769
1684108465380806700,11.150806640625,-0.012338114902377129,-0.37510380148887634,0.0044142440892755985
1684108465390824700,11.16082470703125,-0.021174751222133636,-0.24834796786308289,0.03336040675640106
1684108465400841700,11.170841796875,-0.03728042542934418,-0.12549759447574615,0.051625896245241165
1684108465410859800,11.18085986328125,-0.02827361598610878,-0.053349100053310394,0.06989891082048416
1684108465420876800,11.190876708984375,-0.0239547211676836,-0.05715067684650421,0.07886502146720886
1684108465430894600,11.20089453125,-0.04889442399144173,-0.11882469058036804,0.07712091505527496
1684108465440912000,11.210911865234374,-0.08359617739915848,-0.17978933453559875,0.05881766229867935
1684108465450929700,11.2209296875,-0.1107870489358902,-0.18159787356853485,0.04459158703684807
1684108465460947700,11.23094775390625,-0.1165512353181839,-0.13235275447368622,0.03431699424982071
1684108465470964700,11.24096484375,-0.12467307597398758,-0.06346343457698822,0.029226362705230713
1684108465480982800,11.250982666015625,-0.13207854330539703,0.009112408384680748,0.0305655337870121
1684108465490999800,11.260999755859375,-0.13160130381584167,0.05936119705438614,0.03381538763642311
1684108465501017900,11.271017822265625,-0.12251979112625122,0.0737689882516861,0.028730181977152824
1684108465511035600,11.28103564453125,-0.10493120551109314,0.06750895828008652,0.03352600336074829
1684108465521052700,11.291052734375,-0.08664555102586746,0.031127961352467537,0.04536338895559311
1684108465531070700,11.30107080078125,-0.09084828943014145,-0.044146016240119934,0.07399903237819672
1684108465541087700,11.311087646484374,-0.10844630002975464,-0.15235300362110138,0.12078140676021576
1684108465551105800,11.321105712890626,-0.09936331957578659,-0.2593793272972107,0.1789752095937729
1684108465561122600,11.33112255859375,-0.05660261958837509,-0.3394891619682312,0.24109412729740143
1684108465571140900,11.341140869140625,-0.021984988823533058,-0.3650491237640381,0.27857330441474915
1684108465581158700,11.35115869140625,0.01523206289857626,-0.3052731454372406,0.2753487229347229
1684108465591175700,11.36117578125,0.061868272721767426,-0.12062738835811615,0.21531866490840912
1684108465601193700,11.37119384765625,0.09504841268062592,0.10417971760034561,0.11330480873584747
1684108465611210800,11.381210693359375,0.10249967128038406,0.2181033492088318,0.008096626959741116
1684108465621228800,11.391228759765625,0.0956331342458725,0.21082325279712677,-0.08163835853338242
1684108465631245600,11.40124560546875,0.08682073652744293,0.11759849637746811,-0.16031984984874725
1684108465641263600,11.411263671875,0.09231962263584137,-0.03885067626833916,-0.2198089361190796
1684108465651281700,11.42128173828125,0.11534237861633301,-0.22802698612213135,-0.256239116191864
1684108465661298700,11.431298583984375,0.1252126395702362,-0.4144796133041382,-0.2576691806316376
1684108465671316700,11.441316650390625,0.11278419941663742,-0.5617439150810242,-0.22608304023742676
1684108465681333800,11.451333740234375,0.04830485209822655,-0.6327362060546875,-0.16710194945335388
1684108465691351600,11.4613515625,-0.020860368385910988,-0.6005756258964539,-0.0739312544465065
1684108465701368800,11.471368896484375,-0.06485229730606079,-0.47446268796920776,0.01610122248530388
1684108465711386600,11.48138671875,-0.10822799801826477,-0.30207014083862305,0.09045401960611343
1684108465721404700,11.49140478515625,-0.15054622292518616,-0.07905083149671555,0.13033147156238556
1684108465731421700,11.501421630859374,-0.16483701765537262,0.21570464968681335,0.11237777769565582
1684108465741439700,11.511439697265626,-0.14228688180446625,0.6048277020454407,0.021039722487330437
1684108465751456800,11.521456787109376,-0.12904618680477142,0.9416837692260742,-0.10051121562719345
1684108465761474600,11.531474609375,-0.1357140988111496,1.0219755172729492,-0.1500515639781952
1684108465771491800,11.541491943359375,-0.13842733204364777,0.8512466549873352,-0.11337583512067795
1684108465781509600,11.551509521484375,-0.08859548717737198,0.5450307130813599,-0.012885738164186478
1684108465791527700,11.561527587890625,0.00720560597255826,0.2140359878540039,0.11044232547283173
1684108465801544700,11.571544677734375,0.10263341665267944,-0.09398689866065979,0.22707262635231018
1684108465811562800,11.581562744140625,0.15449368953704834,-0.34375491738319397,0.29633641242980957
1684108465821579800,11.591579833984374,0.182663694024086,-0.489463210105896,0.29908713698387146
1684108465831597800,11.601597900390624,0.1916273683309555,-0.4661072790622711,0.22636394202709198
1684108465841614800,11.61161474609375,0.1893952339887619,-0.2786155045032501,0.0887598991394043
1684108465851633700,11.621633544921876,0.19388319551944733,-0.0287308432161808,-0.0923244059085846
1684108465861651500,11.6316513671875,0.20937512814998627,0.15926675498485565,-0.27501460909843445
1684108465871668500,11.64166845703125,0.24020227789878845,0.2526971101760864,-0.4320596158504486
1684108465881686500,11.6516865234375,0.279041051864624,0.25553667545318604,-0.5482667684555054
1684108465891703300,11.661703369140625,0.31145116686820984,0.18124832212924957,-0.6108758449554443
1684108465901721600,11.6717216796875,0.3081475794315338,0.06078315153717995,-0.6029212474822998
1684108465911738400,11.68173828125,0.2492845356464386,-0.07812786102294922,-0.5321389436721802
1684108465921756400,11.69175634765625,0.1612342745065689,-0.15409906208515167,-0.40272536873817444
1684108465931774500,11.7017744140625,0.08262255787849426,-0.11930513381958008,-0.23837877810001373
1684108465941791500,11.71179150390625,0.03952299430966377,0.043567948043346405,-0.08151398599147797
1684108465951809300,11.721809326171876,0.020543979480862617,0.3356493413448334,0.018633389845490456
1684108465961826600,11.73182666015625,-0.021378299221396446,0.7015264630317688,0.022556591778993607
1684108465971844400,11.74184423828125,-0.09123408049345016,1.0523390769958496,-0.05360449105501175
1684108465981861400,11.751861328125,-0.1539735198020935,1.2773555517196655,-0.1553763598203659
1684108465991879400,11.76187939453125,-0.16707894206047058,1.2859058380126953,-0.20787765085697174
1684108466001897500,11.7718974609375,-0.11742332577705383,0.9879206418991089,-0.1467968076467514
1684108466011914500,11.78191455078125,-0.048484206199645996,0.4366894066333771,-0.008662380278110504
1684108466021932300,11.791932373046874,0.0035859541967511177,-0.14466649293899536,0.09984743595123291
1684108466031949600,11.801949462890626,0.05832589790225029,-0.5671980381011963,0.1263219267129898
1684108466041967400,11.81196728515625,0.11142406612634659,-0.753861665725708,0.10946515947580338
1684108466051985400,11.8219853515625,0.1619037538766861,-0.6642457842826843,0.06837711483240128
1684108466062002400,11.83200244140625,0.1784515380859375,-0.3323644697666168,0.0025563694071024656
1684108466072020500,11.8420205078125,0.1437297761440277,0.11062891781330109,-0.0777192935347557
1684108466082037500,11.85203759765625,0.08397437632083893,0.5031728148460388,-0.14601902663707733
1684108466092055600,11.8620556640625,0.06167839094996452,0.7532665133476257,-0.1832769215106964
1684108466102072600,11.872072509765625,0.0655238926410675,0.8381853699684143,-0.18767647445201874
1684108466112090400,11.88209033203125,0.06520644575357437,0.7006892561912537,-0.13297702372074127
1684108466122108400,11.8921083984375,0.06434163451194763,0.36571863293647766,-0.015311227180063725
1684108466132125400,11.90212548828125,0.07573916018009186,0.003828343003988266,0.08373812586069107
1684108466142143500,11.9121435546875,0.08347894251346588,-0.23787172138690948,0.1175416111946106
1684108466152160500,11.922160400390625,0.10502764582633972,-0.3097626864910126,0.08349469304084778
1684108466162178600,11.932178466796875,0.11105156689882278,-0.21212348341941833,0.016679145395755768
1684108466172195300,11.9421953125,0.07750026136636734,-0.01574011892080307,-0.07417486608028412
1684108466182213600,11.952213623046875,0.024891961365938187,0.14989499747753143,-0.1411953866481781
1684108466192231400,11.9622314453125,-0.011602932587265968,0.19242674112319946,-0.13755324482917786
1684108466202248400,11.97224853515625,-0.021738821640610695,0.1423214077949524,-0.0694141611456871
1684108466212266500,11.9822666015625,-0.02616685815155506,0.055605173110961914,0.004600677639245987
1684108466222283300,11.992283203125,-0.022271858528256416,-0.012913528829813004,0.05658308416604996
1684108466232301600,12.002301513671876,0.005953654181212187,-0.01775515452027321,0.06714572012424469
1684108466242318300,12.012318359375,0.04264352470636368,0.03249487280845642,0.041703857481479645
1684108466252336400,12.02233642578125,0.06687403470277786,0.08156201988458633,0.014454391784965992
1684108466262354400,12.0323544921875,0.07637730240821838,0.10646434873342514,0.015017116442322731
1684108466272371500,12.042371337890625,0.09870684146881104,0.08154115825891495,0.03512557968497276
1684108466282389500,12.052389404296875,0.12946785986423492,-0.017718493938446045,0.0711941197514534
1684108466292406500,12.062406494140625,0.15248076617717743,-0.12787535786628723,0.08909296244382858
1684108466302424300,12.07242431640625,0.1574540138244629,-0.17636841535568237,0.05815839394927025
1684108466312441300,12.08244140625,0.14123934507369995,-0.13796909153461456,-0.013235094025731087
1684108466322459400,12.09245947265625,0.11771812289953232,-0.013045622035861015,-0.09027323871850967
1684108466332477700,12.102477783203126,0.10352267324924469,0.14637573063373566,-0.1401987075805664
1684108466342494500,12.112494384765625,0.08589022606611252,0.25568926334381104,-0.1421690732240677
1684108466352512300,12.12251220703125,0.07465887814760208,0.2299649864435196,-0.08637212216854095
1684108466362529500,12.132529541015625,0.08377396315336227,0.12793183326721191,0.019329840317368507
1684108466372547300,12.14254736328125,0.08740145713090897,-0.01778595708310604,0.11178280413150787
1684108466382565400,12.1525654296875,0.07165979593992233,-0.10473621636629105,0.12078868597745895
1684108466392582400,12.16258251953125,0.06807971000671387,-0.0923333391547203,0.03922139108181
1684108466402600400,12.172600341796874,0.08099512755870819,-0.06106659024953842,-0.06441650539636612
1684108466412617500,12.182617431640624,0.09505768120288849,-0.03621796518564224,-0.13335934281349182
1684108466422635500,12.192635498046876,0.08290839195251465,-0.012891514226794243,-0.14523033797740936
1684108466432652500,12.202652587890626,0.015400455333292484,0.007923751138150692,-0.09617011994123459
1684108466442670300,12.21267041015625,-0.09122397005558014,0.006487599574029446,-0.0017582684522494674
1684108466452688400,12.2226884765625,-0.18382874131202698,-0.02288972958922386,0.11489617079496384
1684108466462705400,12.232705322265625,-0.21894636750221252,-0.03680439293384552,0.199650838971138
1684108466472723500,12.242723388671875,-0.18315455317497253,-0.04812202602624893,0.2179267853498459
1684108466482740500,12.252740478515625,-0.13248540461063385,-0.112868532538414,0.17227432131767273
1684108466492758500,12.262758544921875,-0.10853160172700882,-0.20293131470680237,0.0997343361377716
1684108466502775600,12.272775634765624,-0.07255781441926956,-0.2535077631473541,0.05176379531621933
1684108466512793600,12.282793701171874,-0.026260623708367348,-0.2510387599468231,0.04118705168366432
1684108466522811400,12.292811279296876,0.012276844121515751,-0.19683293998241425,0.0453946627676487
1684108466532828700,12.30282861328125,0.03866903856396675,-0.11511704325675964,0.06520911306142807
1684108466542846500,12.312846435546875,0.0616273507475853,-0.012516896240413189,0.06876523047685623
1684108466552863200,12.32286328125,0.056912489235401154,0.07542388141155243,0.0383111871778965
