time,seconds_elapsed,z,y,x
1684099528179153700,0.037153564453125,-1.3546611070632935,1.6271398067474365,1.177095890045166
1684099528189149700,0.047149658203125,-1.0762935876846313,2.6814069747924805,0.5505056977272034
1684099528199144700,0.057144775390625,-1.0756725072860718,3.7188034057617188,-0.32694700360298157
1684099528209140500,0.067140380859375,-0.7752411961555481,4.33650541305542,-1.0158941745758057
1684099528219135500,0.077135498046875,-0.05459139123558998,4.4101386070251465,-1.4951061010360718
1684099528229131800,0.0871318359375,0.855855405330658,4.246507167816162,-1.9921047687530518
1684099528239126800,0.097126708984375,1.680437445640564,4.14837646484375,-2.646204948425293
1684099528249122600,0.10712255859375,1.6404820680618286,2.551896810531616,-2.095616340637207
1684099528259117600,0.11711767578125,1.5004674196243286,1.5855766534805298,-1.8298851251602173
1684099528269113600,0.127113525390625,1.1105238199234009,0.7515289783477783,-1.3043203353881836
1684099528279108600,0.137108642578125,0.8364371061325073,0.5619851350784302,-1.0466102361679077
1684099528289104000,0.147103759765625,0.46496710181236267,1.4077969789505005,-1.0216784477233887
1684099528299099600,0.157099609375,-0.12037039548158646,1.1127454042434692,-1.2946641445159912
1684099528309094700,0.1670947265625,-0.7159846425056458,-0.7755937576293945,-1.69590163230896
1684099528319090700,0.177090576171875,-0.6764246821403503,-1.9211217164993286,-2.057309627532959
1684099528329085700,0.187085693359375,-0.6992616653442383,-1.585961937904358,-1.6021168231964111
1684099528339081500,0.19708154296875,-0.5071654915809631,-0.6455428600311279,-0.6965629458427429
1684099528349076700,0.20707666015625,-0.0913824662566185,0.19034640491008759,0.019155824556946754
1684099528359072800,0.21707275390625,0.13950960338115692,0.7316107153892517,0.31886371970176697
1684099528369067800,0.22706787109375,0.059566959738731384,0.6240293383598328,0.13854935765266418
1684099528379062500,0.2370625,-0.23980270326137543,0.3254420757293701,-0.4400674104690552
1684099528389058600,0.24705859375,-0.32134127616882324,-0.1766272634267807,-0.9424852132797241
1684099528399053600,0.257053466796875,-0.2551577389240265,-0.70816969871521,-0.9268492460250854
1684099528409049900,0.2670498046875,0.0034985935781151056,-0.5651065707206726,-0.617031991481781
1684099528419044600,0.277044677734375,0.289485365152359,0.08047030866146088,-0.1301877498626709
1684099528429040600,0.28704052734375,0.2621367871761322,0.6011458039283752,0.3639780879020691
1684099528439035600,0.29703564453125,0.206748366355896,1.025132179260254,0.6180487275123596
1684099528449031700,0.30703173828125,0.16969910264015198,1.400966763496399,0.7371037602424622
1684099528459026700,0.317026611328125,0.1033986359834671,1.77814781665802,0.769239068031311
1684099528469022700,0.327022705078125,0.14819231629371643,1.9490549564361572,0.5649067759513855
1684099528479017700,0.337017822265625,0.2867374122142792,0.7487038969993591,0.18911266326904297
1684099528489012700,0.3470126953125,0.3699900805950165,-0.9137075543403625,-0.16645555198192596
1684099528499007700,0.3570078125,0.4857417047023773,-1.6745727062225342,-0.3631342649459839
1684099528509002800,0.367002685546875,0.7718244791030884,-1.4792845249176025,-0.39504027366638184
1684099528518998500,0.37699853515625,1.31954026222229,-0.2962203919887543,-0.21484041213989258
1684099528528993500,0.38699365234375,1.5131645202636719,0.519298255443573,0.3200525939464569
1684099528538989800,0.39698974609375,1.0685937404632568,0.9126394391059875,0.9518929123878479
1684099528548984800,0.40698486328125,0.6076022386550903,0.8255483508110046,1.1739264726638794
1684099528558980600,0.416980712890625,0.32670268416404724,0.7017856240272522,1.0702110528945923
1684099528568975600,0.4269755859375,-0.02185336872935295,1.5967702865600586,1.4718399047851562
1684099528578970600,0.436970703125,0.3153339922428131,2.018810749053955,1.6542274951934814
1684099528588966700,0.446966552734375,0.4470234513282776,1.5799671411514282,1.6237915754318237
1684099528598962000,0.4569619140625,0.43503710627555847,0.8554038405418396,1.3525928258895874
1684099528608957700,0.466957763671875,0.24753180146217346,0.409359335899353,1.3174831867218018
1684099528618952700,0.47695263671875,-0.14073950052261353,0.017125800251960754,1.1946467161178589
1684099528628948700,0.48694873046875,-0.3947993516921997,-0.5574665069580078,0.7987054586410522
1684099528638943700,0.49694384765625,-0.4644538164138794,-1.0541026592254639,0.5044445395469666
1684099528648939500,0.506939453125,-0.3920549154281616,-1.0398056507110596,0.47418293356895447
1684099528658934800,0.516934814453125,-0.20086684823036194,-0.7117645144462585,0.7001465559005737
1684099528668930800,0.526930908203125,0.031968191266059875,-0.28310486674308777,0.9954846501350403
1684099528678925800,0.53692578125,0.259716659784317,0.6399837732315063,0.8878135681152344
1684099528688920800,0.5469208984375,0.2743389308452606,1.365856647491455,0.6120696663856506
1684099528698916600,0.55691650390625,-0.015035598538815975,1.7467896938323975,0.16483598947525024
1684099528708911600,0.56691162109375,-0.3655765652656555,2.0373380184173584,-0.21101169288158417
1684099528718908000,0.576907958984375,-0.6729900240898132,1.9549460411071777,-0.41372406482696533
1684099528728903000,0.58690283203125,-0.9780011177062988,1.179889440536499,-0.6538242697715759
1684099528738898700,0.596898681640625,-1.3572642803192139,0.6576268076896667,-0.9126228094100952
1684099528748893700,0.606893798828125,-1.8253276348114014,0.22146865725517273,-1.14115571975708
1684099528758889700,0.6168896484375,-2.19299578666687,-0.09406372904777527,-1.3606526851654053
1684099528768884700,0.626884765625,-2.2399442195892334,-0.13249991834163666,-1.4603712558746338
1684099528778880800,0.636880859375,-1.7728265523910522,-0.0629727840423584,-1.098723292350769
1684099528788875800,0.646875732421875,-0.9615529775619507,0.3260028660297394,-0.01330653764307499
1684099528798870800,0.656870849609375,-0.1693480759859085,1.3157908916473389,1.537905216217041
1684099528808866800,0.66686669921875,0.08881571888923645,2.257922887802124,3.0868921279907227
1684099528818861800,0.67686181640625,-0.28294211626052856,2.0713953971862793,3.796095848083496
1684099528828857600,0.686857666015625,-0.8008290529251099,1.1596072912216187,3.448347568511963
1684099528838852600,0.6968525390625,-0.9966139793395996,0.3171319365501404,2.465207576751709
1684099528848849000,0.706848876953125,-0.8473584055900574,-0.3293399214744568,1.353436827659607
1684099528858844000,0.716843994140625,-0.5686516761779785,-0.541530191898346,0.42546316981315613
1684099528868839700,0.726839599609375,-0.2525723874568939,-0.35860002040863037,-0.1440342366695404
1684099528878834700,0.736834716796875,0.17102335393428802,0.5506172776222229,-0.2942698001861572
1684099528888829700,0.74682958984375,0.6139872074127197,1.6715272665023804,0.04094335436820984
1684099528898825700,0.75682568359375,0.9099019765853882,2.638622522354126,1.1519290208816528
1684099528908820700,0.76682080078125,0.9028173685073853,4.306082248687744,3.1022303104400635
1684099528918816800,0.776816650390625,0.8700152039527893,5.641260623931885,4.56496000289917
1684099528928811800,0.786811767578125,1.054893970489502,6.439705848693848,5.360604286193848
1684099528938807800,0.796807861328125,1.26260507106781,6.647812366485596,5.5413818359375
1684099528948802800,0.806802734375,0.991297721862793,4.820653915405273,4.3567728996276855
1684099528958798600,0.816798583984375,0.3007664680480957,0.5265597701072693,-1.2869820594787598
1684099528968793600,0.826793701171875,0.5621839761734009,2.157900333404541,-1.0734695196151733
1684099528978790000,0.836789794921875,0.6818360686302185,1.4924376010894775,-0.7178314924240112
1684099528988785000,0.846784912109375,0.9726289510726929,1.6000423431396484,-0.5341387391090393
1684099528998779600,0.856779541015625,1.4870887994766235,2.2364702224731445,-0.31432807445526123
1684099529008775700,0.866775634765625,1.920591115951538,2.266383409500122,-0.15862436592578888
1684099529018770700,0.876770751953125,1.9628217220306396,1.806476354598999,0.05651990324258804
1684099529028766700,0.8867666015625,1.559714436531067,1.491804838180542,0.4438384473323822
1684099529038761700,0.89676171875,0.9200983643531799,1.4303581714630127,0.8341966271400452
1684099529048757800,0.9067578125,0.19212651252746582,2.12834095954895,1.4244017601013184
1684099529058752800,0.916752685546875,-0.8102611899375916,5.019395351409912,3.4041571617126465
1684099529068748800,0.926748779296875,-0.6362137794494629,9.379120826721191,6.5945725440979
1684099529078743800,0.936743896484375,0.6949880719184875,12.387162208557129,8.710713386535645
1684099529088739600,0.946739501953125,2.011814594268799,11.662949562072754,7.55067253112793
1684099529098734600,0.956734619140625,2.159534454345703,9.677362442016602,4.562452793121338
1684099529108729600,0.9667294921875,1.4988291263580322,4.08454704284668,-0.022869806736707687
1684099529118726000,0.976725830078125,0.5735969543457031,-0.9885686635971069,-2.4133002758026123
1684099529128720600,0.986720703125,0.25477176904678345,-2.1197307109832764,-2.223268985748291
1684099529138716700,0.996716552734375,0.12382227182388306,-2.4534101486206055,-2.014847993850708
1684099529148711700,1.006711669921875,0.15764564275741577,-2.5136332511901855,-2.0589075088500977
1684099529158707700,1.016707763671875,0.10778459906578064,-0.5210068821907043,-1.814029574394226
1684099529168702700,1.02670263671875,0.4013429284095764,2.152285099029541,-0.8204166293144226
1684099529178698800,1.03669873046875,0.920587956905365,3.469301700592041,0.009554619900882244
1684099529188693800,1.04669384765625,1.0949102640151978,3.470322370529175,0.449850469827652
1684099529198688800,1.056688720703125,0.8225008249282837,1.9959278106689453,0.1522909551858902
1684099529208684800,1.066684814453125,0.32731759548187256,-0.5898383855819702,-0.7228506803512573
1684099529218679600,1.076679443359375,-0.22846867144107819,-2.438286781311035,-1.6701196432113647
1684099529228675600,1.086675537109375,-0.8935114741325378,-3.635302782058716,-1.8773499727249146
1684099529238670800,1.0966708984375,-1.7048687934875488,-3.2823166847229004,-2.2428104877471924
1684099529248667000,1.1066669921875,-1.955674409866333,-1.4046275615692139,-1.855542540550232
1684099529258661600,1.11666162109375,-1.9701049327850342,0.15770359337329865,-0.8788066506385803
1684099529268657700,1.12665771484375,-1.9284131526947021,0.07205694168806076,-0.4530111253261566
1684099529278652700,1.136652587890625,-1.9558590650558472,-0.7847216725349426,-0.8299888372421265
1684099529288648700,1.146648681640625,-1.8176828622817993,-1.418861985206604,-1.3326789140701294
1684099529298643700,1.156643798828125,-1.5503512620925903,-1.235587477684021,-1.2526932954788208
1684099529308638700,1.166638671875,-1.0723257064819336,-0.22064152359962463,-0.43825072050094604
1684099529318634800,1.176634765625,-0.7627867460250854,0.355346143245697,-0.01752319186925888
1684099529328629800,1.186629638671875,-0.6192790865898132,0.33809351921081543,-0.09937254339456558
1684099529338625800,1.196625732421875,-0.412293940782547,0.44690147042274475,-0.13093791902065277
1684099529348620500,1.20662060546875,-0.7233548164367676,1.6795761585235596,-0.23799540102481842
1684099529358616800,1.216616943359375,-1.2896889448165894,1.5853266716003418,-0.46558383107185364
1684099529368611800,1.22661181640625,-1.6155016422271729,0.9944441914558411,-0.10686348378658295
1684099529378607900,1.23660791015625,-1.7855790853500366,0.19292698800563812,0.5105201005935669
1684099529388602600,1.2466025390625,-2.0923426151275635,1.4144724607467651,1.3578028678894043
1684099529398597600,1.25659765625,-2.000027894973755,1.2837368249893188,1.0473759174346924
1684099529408593700,1.26659375,-1.048890471458435,1.1547123193740845,0.5068052411079407
1684099529418588700,1.276588623046875,-0.5981113910675049,0.9314364194869995,0.6806811690330505
1684099529428584700,1.286584716796875,-0.9003807902336121,0.9965054988861084,0.5936585664749146
1684099529438579700,1.296579833984375,-1.0209641456604004,1.3438286781311035,0.7921268939971924
1684099529448575700,1.30657568359375,-1.2562589645385742,1.7217296361923218,1.387322187423706
1684099529458570800,1.31657080078125,-1.7172622680664062,1.621142029762268,1.3957399129867554
1684099529468566800,1.32656689453125,-1.604224681854248,1.5475871562957764,1.1493991613388062
1684099529478561500,1.3365615234375,-1.398917555809021,0.9300065040588379,0.7104321718215942
1684099529488556500,1.346556640625,-1.2276532649993896,-0.09190275520086288,0.06785755604505539
1684099529498552800,1.356552734375,-1.0486068725585938,-0.8751592040061951,-0.6764853000640869
1684099529508547800,1.3665478515625,-0.9649390578269958,-0.780829906463623,-0.9792788624763489
1684099529518543600,1.376543701171875,-0.887230634689331,0.0020257397554814816,-1.0224006175994873
1684099529528538600,1.38653857421875,-0.3448754847049713,0.9139028191566467,-1.191592812538147
1684099529538534700,1.39653466796875,0.22951404750347137,1.432867169380188,-1.302844762802124
1684099529548529700,1.40652978515625,0.4557647109031677,0.8149902820587158,-0.7102357149124146
1684099529558525700,1.416525634765625,0.09177692979574203,-0.514685332775116,-0.3725266456604004
1684099529568520700,1.426520751953125,-0.5994102358818054,-2.78861665725708,0.753919243812561
1684099529578516700,1.436516845703125,-1.0327073335647583,-3.639751434326172,0.6307176947593689
1684099529588511700,1.44651171875,-1.0698262453079224,-2.9231576919555664,-0.7450152635574341
1684099529598506800,1.4565068359375,-0.8562426567077637,-2.2317559719085693,-1.3819358348846436
1684099529608502500,1.46650244140625,-0.6249874234199524,-1.0570534467697144,-0.8722295165061951
1684099529618497500,1.47649755859375,-0.19279977679252625,-0.13476884365081787,-0.15636380016803741
1684099529628493800,1.486493896484375,0.021532554179430008,0.30049407482147217,0.1487768292427063
1684099529638488800,1.49648876953125,0.11853685975074768,0.8239346742630005,-0.17061208188533783
1684099529648484600,1.506484619140625,0.056829825043678284,1.3780710697174072,-0.5858635902404785
1684099529658479600,1.516479736328125,0.6162185668945312,1.351585865020752,-1.9161714315414429
1684099529668475600,1.5264755859375,0.9427416324615479,0.4620841145515442,-3.546393632888794
1684099529678470700,1.536470703125,0.06397838145494461,-1.8613721132278442,-0.2605208456516266
1684099529688466000,1.5464658203125,-1.0996243953704834,-0.8707088828086853,1.4373881816864014
1684099529698461700,1.556461669921875,-0.4706578850746155,-1.6756125688552856,0.6237983107566833
1684099529708456700,1.566456787109375,0.10858733206987381,-1.3113032579421997,-0.33816254138946533
1684099529718452700,1.57645263671875,0.4338700771331787,-1.3594855070114136,-0.6168565154075623
1684099529728447700,1.58644775390625,0.5444438457489014,-2.7684824466705322,-1.0202795267105103
1684099529738443500,1.596443603515625,0.897295355796814,-5.426410675048828,-3.408453941345215
1684099529748438800,1.606438720703125,0.9657840132713318,-4.491211414337158,-5.294732093811035
1684099529758434800,1.616434814453125,0.816103994846344,-7.040851593017578,-4.632004261016846
1684099529768429800,1.626429931640625,0.885505735874176,-4.787817001342773,-1.4502393007278442
1684099529778424800,1.6364248046875,0.8182194232940674,-1.8960111141204834,0.689742386341095
1684099529788420600,1.646420654296875,0.6225343346595764,0.582922637462616,0.6761777400970459
1684099529798415600,1.65641552734375,0.23294827342033386,0.8497055768966675,0.4424518346786499
1684099529808412000,1.666411865234375,0.14034809172153473,0.6853073239326477,0.614395797252655
1684099529818407000,1.676406982421875,0.12529803812503815,1.3926244974136353,0.6767638325691223
1684099529828402700,1.686402587890625,0.2257727086544037,1.2662307024002075,0.7491636872291565
1684099529838397700,1.696397705078125,0.5149312615394592,1.091293215751648,0.731411874294281
1684099529848393700,1.706393798828125,0.7720820307731628,0.34637030959129333,0.41021132469177246
1684099529858388700,1.716388671875,0.6518661379814148,-0.6062344312667847,-0.2328144907951355
1684099529868384800,1.726384765625,0.10564302653074265,-1.3780410289764404,-0.9793839454650879
1684099529878379800,1.7363798828125,-0.5942234396934509,-1.829319715499878,-1.5385361909866333
1684099529888374800,1.746374755859375,-0.9082737565040588,-1.6759411096572876,-1.6036616563796997
1684099529898370800,1.756370849609375,-0.623965859413147,-1.325339913368225,-1.1958088874816895
1684099529908365800,1.76636572265625,-0.11211525648832321,-1.0859174728393555,-0.462985098361969
1684099529918361600,1.776361572265625,0.37178483605384827,-0.9228616952896118,0.08721573650836945
1684099529928356600,1.786356689453125,0.114987313747406,0.07195591181516647,0.5403639078140259
1684099529938353000,1.796352783203125,0.31230276823043823,1.2226691246032715,1.133650779724121
1684099529948348000,1.806347900390625,0.898617684841156,0.9047372341156006,1.3299674987792969
1684099529958343700,1.81634375,1.4288551807403564,0.7757382392883301,1.0172045230865479
1684099529968338700,1.826338623046875,3.3751349449157715,-0.3729032874107361,-0.5338066220283508
1684099529978334700,1.836334716796875,4.072144031524658,0.11180692166090012,-0.7616680264472961
1684099529988329700,1.846329833984375,2.868504524230957,-0.5784215927124023,-0.5177000761032104
1684099529998324700,1.85632470703125,0.8151021003723145,-0.8871520161628723,-1.2956887483596802
1684099530008320800,1.86632080078125,-0.5435201525688171,0.18612037599086761,0.31240198016166687
1684099530018315800,1.876315673828125,-0.7658533453941345,2.3644373416900635,4.091022491455078
1684099530028311800,1.886311767578125,-0.9627456068992615,2.5319504737854004,3.2048020362854004
1684099530038306800,1.896306884765625,-0.6226344108581543,0.1403397023677826,-1.0563313961029053
1684099530048302600,1.906302490234375,-0.1509585976600647,-0.3569735884666443,-0.43665745854377747
1684099530058297600,1.916297607421875,0.33913999795913696,0.11628689616918564,-0.38889604806900024
1684099530068294000,1.9262939453125,0.8512342572212219,0.16503018140792847,-0.2731214463710785
1684099530078289000,1.936288818359375,0.9294800758361816,0.3177001476287842,-0.27427300810813904
1684099530088284000,1.946283935546875,0.6125238537788391,0.48942938446998596,-0.3676978051662445
1684099530098279700,1.95627978515625,0.15268780291080475,0.14549891650676727,-0.044258467853069305
1684099530108274700,1.966274658203125,-0.6425514221191406,-0.24957889318466187,0.28867030143737793
1684099530118270700,1.976270751953125,-1.2137811183929443,-0.13698790967464447,0.18024607002735138
1684099530128265700,1.986265625,-0.8442206382751465,-0.29908987879753113,0.06275004148483276
1684099530138261800,1.99626171875,-0.2990928590297699,-0.2974341809749603,0.12218274176120758
1684099530148256800,2.0062568359375,-0.19067440927028656,-0.07558023184537888,0.1931917816400528
1684099530158252800,2.016252685546875,-0.36232924461364746,0.19091510772705078,0.2071360945701599
1684099530168247800,2.026247802734375,-0.7624717950820923,0.3982453942298889,0.1894170194864273
1684099530178242600,2.03624267578125,-1.612718939781189,0.44458624720573425,0.16052676737308502
1684099530188238600,2.046238525390625,-2.7665534019470215,0.5613769888877869,0.5198123455047607
1684099530198233600,2.056233642578125,-3.319895029067993,0.4918045699596405,1.4524524211883545
1684099530208230000,2.06622998046875,-2.7197349071502686,0.7954259514808655,2.467268705368042
1684099530218224600,2.076224609375,-1.2974716424942017,1.6877644062042236,3.402366876602173
1684099530228220700,2.086220703125,0.025797197595238686,3.018298864364624,3.686166286468506
1684099530238215700,2.096215576171875,0.43858128786087036,5.067575931549072,3.9038033485412598
1684099530248211700,2.106211669921875,-0.5434216856956482,7.533658504486084,3.439502477645874
1684099530258206700,2.116206787109375,-0.5641272664070129,8.275243759155273,2.096130132675171
1684099530268202800,2.12620263671875,0.6731123328208923,7.254376411437988,2.9003422260284424
1684099530278197800,2.13619775390625,1.6879193782806396,6.543856620788574,4.526375770568848
1684099530288192800,2.14619287109375,1.8862707614898682,3.22126841545105,4.127359390258789
1684099530298188800,2.156188720703125,2.2449748516082764,1.4550955295562744,2.537105083465576
1684099530308183600,2.16618359375,2.117398500442505,1.4547758102416992,1.1192575693130493
1684099530318179600,2.1761796875,1.57384192943573,2.891406536102295,-0.18420468270778656
1684099530328174800,2.1861748046875,-0.11096950620412827,3.204331636428833,-1.5574653148651123
1684099530338171000,2.1961708984375,-1.988144874572754,4.336433410644531,-1.9279485940933228
1684099530348165600,2.20616552734375,-2.8583199977874756,4.114232063293457,-1.1484884023666382
1684099530358161700,2.21616162109375,-3.1124889850616455,1.5655478239059448,-0.3224162757396698
1684099530368156700,2.22615673828125,-3.4329724311828613,-1.4088666439056396,-0.43944722414016724
1684099530378151700,2.236151611328125,-3.5812203884124756,-2.1700422763824463,-0.24876940250396729
1684099530388147700,2.246147705078125,-3.5900719165802,-1.2843588590621948,-0.04228363186120987
1684099530398142700,2.256142822265625,-3.3972904682159424,1.7160286903381348,0.5113470554351807
1684099530408138800,2.266138671875,-2.8207473754882812,9.720678329467773,2.777604103088379
1684099530418133800,2.2761337890625,-1.4930853843688965,12.47295093536377,3.1722562313079834
1684099530428129800,2.2861298828125,-1.3801263570785522,9.056937217712402,1.8340578079223633
1684099530438124500,2.29612451171875,-1.6579809188842773,4.408243656158447,0.8781006336212158
1684099530448120800,2.306120849609375,-1.9230318069458008,1.7614225149154663,0.7589997053146362
1684099530458115800,2.31611572265625,-2.0026133060455322,1.1051301956176758,0.6331280469894409
1684099530468110800,2.32611083984375,-1.9743999242782593,1.1433823108673096,0.17616839706897736
1684099530478106600,2.336106689453125,-1.9526221752166748,1.8124150037765503,-0.03688768669962883
1684099530488101600,2.3461015625,-1.9958362579345703,2.8093652725219727,0.21688120067119598
1684099530498098200,2.35609814453125,-1.005729079246521,2.6658976078033447,0.5179696679115295
1684099530508093200,2.36609326171875,-0.7678858637809753,1.3125170469284058,0.6853833794593811
1684099530518089000,2.3760888671875,-0.2942860424518585,0.4958421587944031,0.9700009822845459
1684099530528084000,2.386083984375,-0.19827033579349518,-0.018924282863736153,0.8331524133682251
1684099530538080000,2.396080078125,-0.10725601017475128,1.3036649227142334,0.43459466099739075
1684099530548075300,2.4060751953125,-0.5483914613723755,2.1371190547943115,0.18750835955142975
1684099530558071000,2.416071044921875,-1.1250033378601074,1.5967113971710205,-0.2751588821411133
1684099530568066000,2.426066162109375,-1.830011248588562,1.1276360750198364,-1.012079119682312
1684099530578061000,2.43606103515625,-1.672494888305664,1.4999449253082275,-1.7062183618545532
1684099530588057000,2.44605712890625,-0.6642900705337524,1.0469905138015747,-1.6414515972137451
1684099530598052000,2.456052001953125,-0.3013288974761963,0.005121065303683281,-1.3392601013183594
1684099530608048000,2.466048095703125,-0.0020829455461353064,-0.6377550363540649,-1.2473798990249634
1684099530618043100,2.476043212890625,0.10576415807008743,-0.4560301899909973,-1.1337825059890747
1684099530628039200,2.4860390625,0.3222288191318512,-0.030907869338989258,-0.9721691012382507
1684099530638034200,2.4960341796875,0.5185213685035706,0.10710779577493668,-0.6551153063774109
1684099530648029200,2.506029296875,0.61910080909729,-0.17594671249389648,-0.4490843415260315
1684099530658025000,2.51602490234375,0.4490569233894348,-0.4183250069618225,-0.5316838622093201
1684099530668020000,2.52602001953125,0.4314352571964264,-0.3288733661174774,-0.7186280488967896
1684099530678016300,2.536016357421875,0.46275511384010315,-0.15249566733837128,-0.7231967449188232
1684099530688011300,2.54601123046875,0.5198363661766052,0.07151081413030624,-0.6022482514381409
1684099530698007000,2.556007080078125,0.3817019462585449,0.4235844314098358,-0.4177180826663971
1684099530708002000,2.566001953125,-0.0253438763320446,0.5249062180519104,-0.3361232876777649
1684099530717998000,2.575998046875,-0.37114521861076355,0.4461347162723541,-0.2796038091182709
1684099530727993000,2.5859931640625,-0.7002375721931458,0.5532728433609009,-0.2393006682395935
1684099530737988000,2.595988037109375,-0.9387856721878052,0.5981047749519348,-0.22333794832229614
1684099530747984100,2.605984130859375,-1.0914740562438965,0.36389657855033875,-0.308674693107605
1684099530757979100,2.615979248046875,-1.2654386758804321,0.30428147315979004,-0.3354074954986572
1684099530767975200,2.62597509765625,-1.3332438468933105,0.41231101751327515,-0.40673714876174927
1684099530777970200,2.63597021484375,-1.1894352436065674,0.7566028833389282,-0.40831029415130615
1684099530787966000,2.645966064453125,-0.7235679626464844,0.7753612995147705,-0.24445247650146484
1684099530797961000,2.6559609375,-0.1577136367559433,0.2870504558086395,-0.04291722923517227
1684099530807957200,2.665957275390625,0.24648481607437134,-0.23184466361999512,0.1816941201686859
1684099530817952300,2.6759521484375,0.3850240707397461,-0.6992936134338379,0.35004982352256775
1684099530827947300,2.685947265625,0.3247060179710388,-0.7332826852798462,0.49480268359184265
1684099530837943000,2.695943115234375,0.29864564538002014,-0.7838718295097351,0.4615480601787567
1684099530847938000,2.70593798828125,0.3076833188533783,-0.9547669291496277,0.24081522226333618
1684099530857934000,2.71593408203125,0.2771033048629761,-1.0924862623214722,0.0768987238407135
1684099530867929000,2.72592919921875,0.10394032299518585,-1.2872483730316162,-0.19748997688293457
1684099530877925000,2.735925048828125,-0.023616034537553787,-1.303389310836792,-0.4358530342578888
1684099530887920000,2.745920166015625,-0.2353457361459732,-0.9765321016311646,-0.4309258759021759
1684099530897916200,2.755916259765625,-0.47896212339401245,-0.2003180831670761,-0.06761107593774796
1684099530907911200,2.7659111328125,-0.15119974315166473,0.7174215316772461,0.7767340540885925
1684099530917906000,2.775906005859375,0.40958791971206665,0.7291756868362427,1.6261831521987915
1684099530927902000,2.78590185546875,0.8171252608299255,0.5583203434944153,2.054288387298584
1684099530937897200,2.795897216796875,1.73747980594635,0.6027080416679382,2.568434953689575
1684099530947893200,2.805893310546875,2.3791439533233643,0.5712134838104248,2.9229369163513184
1684099530957888000,2.815887939453125,2.163461685180664,-0.6036749482154846,2.7866694927215576
1684099530967884000,2.825884033203125,2.6999611854553223,-2.09735369682312,2.0584871768951416
1684099530977879000,2.835879150390625,2.5575408935546875,-1.8261727094650269,0.9606063365936279
1684099530987875000,2.845875,1.832986831665039,-1.395140528678894,-0.1283833384513855
1684099530997870000,2.8558701171875,0.25600749254226685,-0.7748013734817505,-1.011959433555603
1684099531007865000,2.865864990234375,-1.2700402736663818,0.5415281653404236,-2.016676187515259
1684099531017861000,2.875861083984375,-2.083904504776001,1.689383625984192,-2.602267265319824
1684099531027856100,2.885856201171875,-2.6640472412109375,3.31427264213562,-2.8399863243103027
1684099531037852200,2.89585205078125,-2.5701377391815186,4.446285724639893,-2.5765397548675537
1684099531047847000,2.905846923828125,-1.7875847816467285,3.860933542251587,-1.9264373779296875
1684099531057843200,2.91584326171875,-1.10614013671875,2.474097490310669,-1.441393494606018
1684099531067838200,2.925838134765625,-0.8624470829963684,2.178788661956787,-1.360945701599121
1684099531077834200,2.935834228515625,-0.7962342500686646,2.193394422531128,-1.6882069110870361
1684099531087829000,2.9458291015625,-0.7405462861061096,2.038874387741089,-1.9204401969909668
1684099531097824000,2.955823974609375,-0.3793984353542328,1.4444185495376587,-1.6636431217193604
1684099531107820000,2.965820068359375,-0.07722507417201996,0.5119171142578125,-1.0916478633880615
1684099531117815000,2.97581494140625,-0.020046476274728775,0.022082678973674774,-0.6235563158988953
1684099531127811000,2.98581103515625,-0.053063470870256424,-0.08327575027942657,-0.445358008146286
1684099531137806000,2.99580615234375,-0.04859015718102455,-0.2965688407421112,-0.5017578601837158
1684099531147802000,3.005802001953125,-0.2649252712726593,-0.012633631005883217,-0.6899746656417847
1684099531157797000,3.015797119140625,-0.5095866918563843,0.6287814974784851,-0.9023364186286926
1684099531167793200,3.025793212890625,-0.703289806842804,0.7889248728752136,-1.0801749229431152
1684099531177788000,3.035787841796875,-0.7670860886573792,1.0187528133392334,-0.9999605417251587
1684099531187783000,3.045782958984375,-0.8566707372665405,1.1245208978652954,-0.9195298552513123
1684099531197779200,3.055779296875,-0.9396553635597229,1.1169993877410889,-0.9967692494392395
1684099531207774200,3.065774169921875,-0.824462354183197,1.3318060636520386,-1.037834882736206
1684099531217770000,3.07577001953125,-0.6523686051368713,1.513800024986267,-0.9113144874572754
1684099531227765000,3.085764892578125,-0.6938862204551697,1.5385351181030273,-0.9574045538902283
1684099531237761000,3.095760986328125,-0.5434905886650085,1.323525309562683,-0.916320264339447
1684099531247756000,3.105756103515625,-0.4425026476383209,1.041398048400879,-0.9323786497116089
1684099531257751000,3.1157509765625,-0.2823268175125122,0.8087946176528931,-0.8889853954315186
1684099531267747000,3.1257470703125,-0.12007909268140793,0.5405803918838501,-0.7939251065254211
1684099531277742000,3.1357421875,-0.00015295168850570917,0.3579389452934265,-0.7105758786201477
1684099531287738000,3.145738037109375,0.08430615067481995,0.2205510139465332,-0.5694299340248108
1684099531297733000,3.155733154296875,0.15524902939796448,0.12498987466096878,-0.38107362389564514
1684099531307729000,3.16572900390625,0.23027212917804718,0.16374471783638,-0.24655629694461823
1684099531317724000,3.175723876953125,0.36302727460861206,-0.008480837568640709,-0.14978821575641632
1684099531327720200,3.18572021484375,0.4802429676055908,-0.14065521955490112,-0.11627363413572311
1684099531337715200,3.195715087890625,0.5316637754440308,-0.11881356686353683,-0.19430772960186005
1684099531347710200,3.205710205078125,0.5680719614028931,0.034096915274858475,-0.23140037059783936
1684099531357706000,3.2157060546875,0.603489339351654,0.0518823079764843,-0.2898860573768616
1684099531367701000,3.225700927734375,0.6043707132339478,0.06511762738227844,-0.3474961221218109
1684099531377697000,3.235697021484375,0.5535847544670105,0.09097079187631607,-0.3484482169151306
1684099531387692300,3.2456923828125,0.5207437872886658,0.014526868239045143,-0.29491621255874634
1684099531397688000,3.25568798828125,0.4494571387767792,0.028969723731279373,-0.17880131304264069
1684099531407683000,3.26568310546875,0.3730773329734802,0.12214373797178268,-0.13164907693862915
1684099531417679000,3.27567919921875,0.25656402111053467,0.08591116219758987,-0.2056945413351059
1684099531427674000,3.285674072265625,0.1252976506948471,-0.03911253437399864,-0.263139545917511
1684099531437669000,3.295669189453125,0.0707116350531578,0.25010621547698975,-0.29449960589408875
1684099531447665000,3.305664794921875,0.02634558081626892,0.5888478755950928,-0.2652324140071869
1684099531457660200,3.31566015625,-0.02396978624165058,0.8083615899085999,-0.17778269946575165
1684099531467656200,3.32565625,-0.07835865765810013,0.8968781232833862,-0.12309537082910538
1684099531477651200,3.335651123046875,-0.06980831921100616,1.0030461549758911,-0.10043186694383621
1684099531487647000,3.34564697265625,-0.03960376977920532,0.9390418529510498,-0.06827852874994278
1684099531497642000,3.35564208984375,-0.025483425706624985,0.8302956819534302,-0.056831732392311096
1684099531507638800,3.365638671875,-0.016128171235322952,0.7316649556159973,-0.09754713624715805
1684099531517633800,3.3756337890625,-0.006052366923540831,0.5671660304069519,-0.13888925313949585
1684099531527628500,3.385628662109375,0.023261867463588715,0.43923404812812805,-0.18486475944519043
1684099531537624600,3.39562451171875,0.06356934458017349,0.4456583857536316,-0.2393498420715332
1684099531547619600,3.40561962890625,0.09980262815952301,0.45565128326416016,-0.2555539608001709
1684099531557615600,3.41561572265625,0.12386561930179596,0.4862869381904602,-0.23441432416439056
1684099531567610600,3.425610595703125,0.12629015743732452,0.48110824823379517,-0.183648020029068
1684099531577606700,3.435606689453125,0.14516423642635345,0.36990848183631897,-0.1130146011710167
1684099531587601700,3.4456015625,0.1634339988231659,0.3076372444629669,-0.11228959262371063
1684099531597597700,3.45559765625,0.20342348515987396,0.27581486105918884,-0.12893514335155487
1684099531607592700,3.4655927734375,0.23006640374660492,0.210429847240448,-0.11125331372022629
1684099531617587500,3.47558740234375,0.23874431848526,0.17506785690784454,-0.10729318857192993
1684099531627583500,3.48558349609375,0.260824590921402,0.1675279140472412,-0.103195920586586
1684099531637578500,3.49557861328125,0.2926144599914551,0.11318158358335495,-0.07417678087949753
1684099531647574800,3.50557470703125,0.3058938682079315,0.08470819145441055,-0.04139774665236473
1684099531657569500,3.515569580078125,0.31204870343208313,0.03553345799446106,-0.018136100843548775
1684099531667565600,3.525565673828125,0.3151683509349823,-0.09427255392074585,-0.07830807566642761
1684099531677560600,3.535560546875,0.30830031633377075,-0.15095846354961395,-0.15108001232147217
1684099531687555600,3.5455556640625,0.30691659450531006,-0.133370503783226,-0.19936083257198334
1684099531697551600,3.555551513671875,0.3237174153327942,-0.10120271146297455,-0.22304858267307281
1684099531707546600,3.565546630859375,0.3427317440509796,-0.067448191344738,-0.23463867604732513
1684099531717542700,3.575542724609375,0.34776270389556885,-0.024967575445771217,-0.25299370288848877
1684099531727537700,3.58553759765625,0.32182085514068604,-0.022022275254130363,-0.2370331585407257
1684099531737533700,3.59553369140625,0.2806481122970581,-0.01382426731288433,-0.21552839875221252
1684099531747528400,3.605528564453125,0.23613858222961426,0.019477669149637222,-0.1945945918560028
1684099531757524500,3.6155244140625,0.1922595351934433,0.036230817437171936,-0.1644396185874939
1684099531767519700,3.625519775390625,0.1604405790567398,0.019106393679976463,-0.13838742673397064
1684099531777514800,3.6355146484375,0.1460360735654831,-0.018785061314702034,-0.12339358031749725
1684099531787510500,3.645510498046875,0.14650875329971313,-0.035486504435539246,-0.13704967498779297
1684099531797505500,3.655505615234375,0.1287742257118225,-0.05589563399553299,-0.1507452428340912
1684099531807501600,3.66550146484375,0.10964684933423996,-0.06717251986265182,-0.17758691310882568
1684099531817496600,3.67549658203125,0.09183961898088455,-0.06347951292991638,-0.21246235072612762
1684099531827492600,3.68549267578125,0.0714179202914238,-0.07616258412599564,-0.228896364569664
1684099531837487600,3.695487548828125,0.0605652779340744,-0.06510407477617264,-0.20908644795417786
1684099531847483600,3.705483642578125,0.07433027774095535,-0.03913687914609909,-0.16974391043186188
1684099531857478700,3.715478759765625,0.11317594349384308,-0.01988488808274269,-0.14245370030403137
1684099531867473700,3.7254736328125,0.14079923927783966,-0.02666383609175682,-0.10903492569923401
1684099531877469400,3.735469482421875,0.14424990117549896,-0.06884697079658508,-0.07504500448703766
1684099531887464400,3.74546435546875,0.14602945744991302,-0.10608097165822983,-0.05488944426178932
1684099531897460700,3.755460693359375,0.13238447904586792,-0.14120034873485565,-0.07299680262804031
1684099531907455700,3.765455810546875,0.12041717767715454,-0.16643130779266357,-0.11150693893432617
1684099531917451500,3.775451416015625,0.1114865317940712,-0.15946555137634277,-0.15119363367557526
1684099531927446500,3.785446533203125,0.12296774983406067,-0.16324780881404877,-0.19186262786388397
1684099531937442600,3.795442626953125,0.1402311623096466,-0.17846351861953735,-0.23013465106487274
1684099531947437600,3.8054375,0.15612326562404633,-0.17709742486476898,-0.23967692255973816
1684099531957432600,3.8154326171875,0.16846568882465363,-0.14603963494300842,-0.21524640917778015
1684099531967428600,3.8254287109375,0.1669992059469223,-0.1073559895157814,-0.1748204082250595
1684099531977423600,3.835423583984375,0.15671993792057037,-0.06908024102449417,-0.14896537363529205
1684099531987419600,3.845419677734375,0.13434745371341705,-0.051892682909965515,-0.13142620027065277
1684099531997414700,3.85541455078125,0.1159583330154419,-0.035037003457546234,-0.11123278737068176
1684099532007410400,3.865410400390625,0.0947129875421524,-0.033743396401405334,-0.08230049163103104
1684099532017405400,3.875405517578125,0.069870226085186,-0.0131989736109972,-0.07728123664855957
1684099532027401700,3.885401611328125,0.02909545972943306,0.0031591015867888927,-0.11071133613586426
1684099532037396700,3.895396728515625,-0.022877193987369537,-0.0200737826526165,-0.15453338623046875
1684099532047391700,3.905391845703125,-0.06501700729131699,-0.025457847863435745,-0.18297627568244934
1684099532057387500,3.915387451171875,-0.12918852269649506,-0.0006715417839586735,-0.1749095618724823
1684099532067382500,3.925382568359375,-0.20305757224559784,0.03119415044784546,-0.14612209796905518
1684099532077378600,3.935378662109375,-0.266614705324173,0.030791480094194412,-0.1085856556892395
1684099532087373600,3.94537353515625,-0.33710581064224243,0.07604557275772095,-0.0631086602807045
1684099532097369600,3.95536962890625,-0.3895706236362457,0.16251282393932343,-0.03756868466734886
1684099532107364600,3.965364501953125,-0.40355345606803894,0.25646257400512695,-0.018213244155049324
1684099532117359600,3.975359619140625,-0.42813602089881897,0.3050897419452667,-0.007103601470589638
1684099532127355600,3.985355712890625,-0.4475204050540924,0.3305395245552063,0.005357310175895691
1684099532137350700,3.9953505859375,-0.5161269307136536,0.4544611871242523,0.01882172003388405
1684099532147346400,4.005346435546875,-0.5465890169143677,0.5103753209114075,0.017847266048192978
1684099532157341400,4.015341552734375,-0.5465403199195862,0.5269820094108582,-0.004715834744274616
1684099532167337700,4.025337646484375,-0.4761704206466675,0.5016876459121704,-0.019943546503782272
1684099532177332700,4.035332763671875,-0.39975419640541077,0.47325950860977173,-0.04322143644094467
1684099532187328500,4.04532861328125,-0.3159390389919281,0.37703344225883484,-0.08155899494886398
1684099532197323500,4.055323486328125,-0.2411699891090393,0.3218705952167511,-0.07310771942138672
1684099532207319600,4.065319580078125,-0.1901973932981491,0.23068386316299438,-0.06474477052688599
1684099532217314600,4.075314453125,-0.1528281718492508,0.18707433342933655,-0.04416386038064957
1684099532227309800,4.085309814453125,-0.13275928795337677,0.1614619791507721,-0.03046397678554058
1684099532237305600,4.0953056640625,-0.1420918107032776,0.16178075969219208,-0.03112976811826229
1684099532247300600,4.105300537109375,-0.16063140332698822,0.1351957470178604,-0.06173161789774895
1684099532257296600,4.115296630859375,-0.16298484802246094,0.13015465438365936,-0.07300584763288498
1684099532267291600,4.125291748046875,-0.15503033995628357,0.1484144628047943,-0.0756552517414093
1684099532277287400,4.135287353515625,-0.14352627098560333,0.15104833245277405,-0.06804074347019196
1684099532287282700,4.14528271484375,-0.12336251139640808,0.14763809740543365,-0.04902103170752525
1684099532297278700,4.15527880859375,-0.0980243980884552,0.13192011415958405,-0.03119383193552494
1684099532307273700,4.165273681640625,-0.07533767074346542,0.10507868975400925,-0.007549629546701908
1684099532317268700,4.175268798828125,-0.07875184714794159,0.08371774107217789,-0.014398480765521526
1684099532327264500,4.185264404296875,-0.09568877518177032,0.0663149356842041,-0.030376886948943138
1684099532337259500,4.195259521484375,-0.11755918711423874,0.07540003955364227,-0.05700929835438728
1684099532347255800,4.205255859375,-0.13459323346614838,0.09293363988399506,-0.07945771515369415
1684099532357250800,4.215250732421875,-0.15477946400642395,0.10581721365451813,-0.11562184244394302
1684099532367246600,4.22524658203125,-0.15275029838085175,0.14911788702011108,-0.14103500545024872
1684099532377241600,4.23524169921875,-0.12661856412887573,0.17470073699951172,-0.13705545663833618
1684099532387237600,4.245237548828125,-0.09480513632297516,0.1641588658094406,-0.12106069922447205
1684099532397232600,4.255232666015625,-0.059581369161605835,0.17212624847888947,-0.08688781410455704
1684099532407227400,4.265227294921875,-0.02671377919614315,0.1878129094839096,-0.05045320466160774
1684099532417223700,4.2752236328125,-0.015487490221858025,0.1796463280916214,-0.03810039907693863
1684099532427218700,4.28521875,-0.013800322078168392,0.1757054179906845,-0.03128817304968834
1684099532437214700,4.295214599609375,-0.01983477920293808,0.15740416944026947,-0.030722785741090775
1684099532447209500,4.30520947265625,-0.025339307263493538,0.1291988641023636,-0.023655477911233902
1684099532457205500,4.31520556640625,-0.02818782441318035,0.11260364949703217,-0.01624816283583641
1684099532467200500,4.325200439453125,-0.040851153433322906,0.0853373259305954,-0.021114272996783257
1684099532477196800,4.33519677734375,-0.05321327969431877,0.05634748935699463,-0.009865612722933292
1684099532487191600,4.345191650390625,-0.04796075075864792,0.036253564059734344,0.0026376901660114527
1684099532497186600,4.3551865234375,-0.044919952750205994,0.04609447717666626,0.031074658036231995
1684099532507182000,4.36518212890625,-0.03482775390148163,0.07014443725347519,0.07152913510799408
1684099532517177000,4.375177001953125,-0.03253557160496712,0.06291954219341278,0.08563137799501419
1684099532527173400,4.38517333984375,-0.033696241676807404,0.043394625186920166,0.06143054738640785
1684099532537168400,4.39516845703125,-0.032562267035245895,0.06355635076761246,0.019441021606326103
1684099532547164200,4.4051640625,-0.027611475437879562,0.1007387638092041,-0.009960515424609184
1684099532557159200,4.4151591796875,-0.021236134693026543,0.0904078334569931,-0.0038357768207788467
1684099532567155200,4.4251552734375,-0.024191400036215782,0.05136405676603317,0.029009979218244553
1684099532577150200,4.435150146484375,0.006870378740131855,0.041690126061439514,0.06480100005865097
1684099532587145200,4.445145263671875,0.07098758220672607,0.04477699473500252,0.13561470806598663
1684099532597141200,4.455141357421875,0.11091821640729904,0.006802449002861977,0.1922990381717682
1684099532607136300,4.46513623046875,0.1288580447435379,-0.04589290916919708,0.22957003116607666
1684099532617132300,4.47513232421875,0.14124228060245514,-0.04184277728199959,0.22742964327335358
1684099532627127300,4.485127197265625,0.15497417747974396,-0.032894305884838104,0.20552493631839752
1684099532637123000,4.495123046875,0.15952499210834503,-0.050102055072784424,0.1834326833486557
1684099532647118300,4.505118408203125,0.16201524436473846,-0.04040295630693436,0.14142169058322906
1684099532657114400,4.5151142578125,0.15281881392002106,-0.010624822229146957,0.05933401733636856
1684099532667109400,4.525109375,0.13408347964286804,-0.012065941467881203,-0.013910351321101189
1684099532677105200,4.535105224609375,0.13262300193309784,-0.025010768324136734,-0.05181112885475159
1684099532687100200,4.54510009765625,0.12620750069618225,-0.07331587374210358,-0.06885012239217758
1684099532697095200,4.55509521484375,0.13770169019699097,-0.07655081152915955,-0.06625061482191086
1684099532707091500,4.565091552734375,0.16026470065116882,-0.0793120414018631,-0.05124828219413757
1684099532717086200,4.575086181640625,0.18804572522640228,-0.11075252294540405,-0.012046550400555134
1684099532727082200,4.585082275390625,0.19216687977313995,-0.15373316407203674,-0.0035519630182534456
1684099532737077200,4.5950771484375,0.14965830743312836,-0.15715292096138,0.0015581103507429361
1684099532747073300,4.6050732421875,0.1325102150440216,-0.14917303621768951,0.01279984600841999
1684099532757068000,4.615068115234375,0.12471593916416168,-0.1615932136774063,0.019733652472496033
1684099532767064300,4.625064208984375,0.12480463832616806,-0.19966930150985718,0.06741377711296082
1684099532777059300,4.635059326171875,0.15278780460357666,-0.21471722424030304,0.09817541390657425
1684099532787054300,4.645054443359375,0.16682831943035126,-0.2425648719072342,0.11574044078588486
1684099532797050000,4.655050048828125,0.1708049476146698,-0.23822098970413208,0.11758068203926086
1684099532807045000,4.665045166015625,0.15450485050678253,-0.20842498540878296,0.08110702037811279
1684099532817041200,4.675041259765625,0.12319885939359665,-0.18109935522079468,0.0454757884144783
1684099532827036200,4.6850361328125,0.09979031980037689,-0.16037678718566895,0.024730835109949112
1684099532837032200,4.6950322265625,0.07828476279973984,-0.12065626680850983,0.01900184340775013
1684099532847027200,4.705027099609375,0.07419394701719284,-0.10384911298751831,0.02068617008626461
1684099532857023200,4.715023193359375,0.08265134692192078,-0.1463630050420761,0.05919468402862549
1684099532867018200,4.725018310546875,0.1037370041012764,-0.20284585654735565,0.1171632781624794
1684099532877013200,4.73501318359375,0.1180965006351471,-0.24368730187416077,0.1468047797679901
1684099532887009000,4.745009033203125,0.12117759883403778,-0.28625786304473877,0.196018248796463
1684099532897004000,4.755004150390625,0.10250191390514374,-0.2700381278991699,0.19333884119987488
1684099532907000300,4.765000244140625,0.05648142844438553,-0.2100224792957306,0.14912131428718567
1684099532916995300,4.774995361328125,0.0016789005603641272,-0.14678199589252472,0.1080295518040657
1684099532926991000,4.7849912109375,-0.038360487669706345,-0.10257624834775925,0.08410898596048355
1684099532936986000,4.794986083984375,-0.054071009159088135,-0.09588558971881866,0.060781821608543396
1684099532946982100,4.804982177734375,-0.035613350570201874,-0.1224246397614479,0.058028679341077805
1684099532956977200,4.81497705078125,0.032186735421419144,-0.17618399858474731,0.09124921262264252
1684099532966972200,4.82497216796875,0.08689447492361069,-0.23960167169570923,0.12763087451457977
1684099532976968200,4.83496826171875,0.11109568923711777,-0.25383493304252625,0.13549652695655823
1684099532986963200,4.844963134765625,0.09093122184276581,-0.2160443663597107,0.10896976292133331
1684099532996959200,4.854959228515625,0.05691306293010712,-0.18169865012168884,0.09334499388933182
1684099533006954200,4.864954345703125,0.030422132462263107,-0.16579990088939667,0.07673127949237823
1684099533016950000,4.874949951171875,0.02411949634552002,-0.16928118467330933,0.07227235287427902
1684099533026945000,4.884945068359375,0.032250091433525085,-0.19149285554885864,0.08011572062969208
1684099533036941300,4.89494140625,0.06009876728057861,-0.23097340762615204,0.07713404297828674
1684099533046936300,4.904936279296875,0.11168580502271652,-0.25644442439079285,0.07196184992790222
1684099533056932000,4.91493212890625,0.18094903230667114,-0.29622378945350647,0.07161324471235275
1684099533066927000,4.924927001953125,0.22860707342624664,-0.3288692533969879,0.10109768062829971
1684099533076922000,4.934922119140625,0.24255244433879852,-0.217209592461586,0.13905571401119232
1684099533086918100,4.944918212890625,0.25960174202919006,-0.2180066704750061,0.17484965920448303
1684099533096913400,4.954913330078125,0.24088983237743378,-0.26770949363708496,0.20433218777179718
1684099533106909200,4.9649091796875,0.22236254811286926,-0.29112860560417175,0.18102328479290009
1684099533116904200,4.974904296875,0.2213958203792572,-0.288944810628891,0.16682597994804382
1684099533126900200,4.984900146484375,0.24869416654109955,-0.28322237730026245,0.15256020426750183
1684099533136895200,4.994895263671875,0.26478660106658936,-0.26917633414268494,0.12004086375236511
1684099533146891000,5.00489111328125,0.2704862356185913,-0.2800421118736267,0.11230021715164185
1684099533156886000,5.014885986328125,0.2827322483062744,-0.35985732078552246,0.15176665782928467
1684099533166882300,5.02488232421875,0.28631532192230225,-0.4349746108055115,0.1881389617919922
1684099533176877300,5.034877197265625,0.290069580078125,-0.5183291435241699,0.23046031594276428
1684099533186872300,5.044872314453125,0.3138018846511841,-0.6359781622886658,0.32244232296943665
1684099533196868000,5.0548681640625,0.3388979136943817,-0.7396249175071716,0.4131847620010376
1684099533206863000,5.064863037109375,0.34503135085105896,-0.7268399596214294,0.5286020636558533
1684099533216859100,5.074859130859375,0.31262892484664917,-0.7245544195175171,0.6273424625396729
1684099533226854400,5.0848544921875,0.24808083474636078,-0.8832037448883057,0.8229484558105469
1684099533236850200,5.09485009765625,0.2162661850452423,-1.0505083799362183,1.1063226461410522
1684099533246845200,5.10484521484375,0.26261937618255615,-1.015868902206421,1.259793758392334
1684099533256841200,5.11484130859375,0.25849467515945435,-0.6965848803520203,0.9241294264793396
1684099533266836200,5.124836181640625,0.18199637532234192,-0.22635170817375183,0.2184012085199356
1684099533276831200,5.134831298828125,0.09066008776426315,0.085260771214962,-0.2030501514673233
1684099533286827300,5.1448271484375,0.0789380595088005,-0.03974267095327377,-0.03063924051821232
1684099533296822300,5.154822265625,0.14654479920864105,-0.17174838483333588,0.1741325408220291
1684099533306818300,5.164818359375,0.22895605862140656,-0.2725852429866791,0.33193573355674744
1684099533316813300,5.174813232421875,0.2865000367164612,-0.36238837242126465,0.37843266129493713
1684099533326809000,5.18480908203125,0.2090146541595459,-0.4053109288215637,0.36605894565582275
1684099533336804000,5.19480419921875,0.08546235412359238,-0.36405056715011597,0.3913286030292511
1684099533346800400,5.20480029296875,-0.021062051877379417,-0.20850923657417297,0.3997316360473633
1684099533356795400,5.21479541015625,-0.1048179343342781,-0.029518719762563705,0.3051247000694275
1684099533366791200,5.224791259765625,-0.27146950364112854,-0.024613702669739723,0.19758379459381104
1684099533376786200,5.2347861328125,-0.49562323093414307,-0.2705078721046448,0.16370704770088196
1684099533386781200,5.24478125,-0.6431148052215576,-0.6142420172691345,0.2707935869693756
1684099533396777200,5.254777099609375,-0.5888148546218872,-0.8799312114715576,0.3920169472694397
1684099533406772200,5.264772216796875,-0.3489006459712982,-0.9959648251533508,0.4036877751350403
1684099533416768300,5.274768310546875,-0.15297190845012665,-1.1089681386947632,0.3061843812465668
1684099533426763300,5.28476318359375,-0.11741717904806137,-1.018852949142456,0.18570762872695923
1684099533436759300,5.29475927734375,-0.07191387563943863,-0.7222331166267395,0.05523698031902313
1684099533446754300,5.30475439453125,0.02467138133943081,-0.39798396825790405,-0.04339369758963585
1684099533456750000,5.31475,0.08599386364221573,-0.3085542321205139,-0.03876405954360962
1684099533466745000,5.3247451171875,0.10338565707206726,-0.30537930130958557,0.10138846933841705
1684099533476741400,5.334741455078125,0.14496399462223053,-0.12435810267925262,0.3073573410511017
1684099533486736400,5.344736328125,0.25378942489624023,0.20848537981510162,0.43259862065315247
1684099533496731400,5.3547314453125,0.34194642305374146,0.3151603937149048,0.3694918155670166
1684099533506727400,5.3647275390625,0.3655751347541809,-0.022874392569065094,0.2780437469482422
1684099533516722400,5.374722412109375,0.25525954365730286,-0.8528157472610474,0.03453734889626503
1684099533526718700,5.38471875,0.22330793738365173,-1.2438000440597534,-0.1243724450469017
1684099533536713700,5.394713623046875,0.23697927594184875,-1.0639673471450806,-0.12771524488925934
1684099533546709500,5.40470947265625,0.20148634910583496,-0.7546607851982117,-0.028995804488658905
1684099533556704500,5.41470458984375,0.13385537266731262,-0.5010154843330383,0.18080562353134155
1684099533566700500,5.424700439453125,0.08347475528717041,-0.2518717050552368,0.3436478078365326
1684099533576695600,5.434695556640625,0.10074722021818161,0.07613600045442581,0.33949753642082214
1684099533586690300,5.444690185546875,0.15075112879276276,0.26142480969429016,0.2547842562198639
1684099533596686600,5.4546865234375,0.12459195405244827,0.007963236421346664,0.19373290240764618
1684099533606681600,5.464681640625,-0.020096201449632645,-0.9252104759216309,0.07406794279813766
1684099533616677600,5.474677734375,-0.13911952078342438,-1.6801708936691284,-0.1587599813938141
1684099533626672400,5.48467236328125,-0.18673565983772278,-1.753424048423767,-0.20297960937023163
1684099533636668400,5.49466845703125,-0.14718425273895264,-1.3237006664276123,-0.06307017803192139
1684099533646663400,5.504663330078125,-0.07666213065385818,-0.6785420179367065,0.11184639483690262
1684099533656659700,5.51465966796875,-0.00484120100736618,-0.1259520947933197,0.1946382224559784
1684099533666654500,5.524654541015625,0.10549772530794144,0.22636274993419647,0.18033698201179504
1684099533676650500,5.534650390625,0.2433711588382721,0.31031569838523865,0.11218030750751495
1684099533686645500,5.5446455078125,0.2853108048439026,0.025651495903730392,0.0488298237323761
1684099533696640500,5.554640625,0.10540679842233658,-0.5791595578193665,0.04024192690849304
1684099533706636500,5.564636474609375,-0.13231608271598816,-1.1083567142486572,0.023978903889656067
1684099533716631300,5.57463134765625,-0.3026660084724426,-1.32472825050354,-0.003317698370665312
1684099533726627600,5.584627685546875,-0.3380448818206787,-1.2578802108764648,-0.03769751265645027
1684099533736622600,5.59462255859375,-0.2062940150499344,-0.9961484670639038,-0.028209205716848373
1684099533746618600,5.60461865234375,0.06794535368680954,-0.5596834421157837,0.0898594930768013
1684099533756613400,5.61461328125,0.36280733346939087,0.03350961580872536,0.1894926130771637
1684099533766609400,5.624609375,0.5301809906959534,0.4103008210659027,0.09713898599147797
1684099533776604400,5.6346044921875,0.4827900528907776,0.22023102641105652,-0.1381896436214447
1684099533786600700,5.6446005859375,0.26112908124923706,-0.4561234414577484,-0.26883456110954285
1684099533796595500,5.654595458984375,0.013644184917211533,-1.0094630718231201,-0.24474838376045227
1684099533806590500,5.664590576171875,-0.13368354737758636,-1.2204055786132812,-0.16633442044258118
1684099533816586500,5.67458642578125,-0.20675750076770782,-1.1900231838226318,-0.09225033223628998
1684099533826581500,5.68458154296875,-0.20262742042541504,-0.8748510479927063,-0.001587106380611658
1684099533836577500,5.69457763671875,-0.14190202951431274,-0.20541462302207947,0.1981193572282791
1684099533846572300,5.704572265625,-0.040155116468667984,0.5312450528144836,0.3376888930797577
1684099533856568600,5.714568603515625,-0.020857851952314377,0.6447590589523315,0.08102726936340332
1684099533866563600,5.7245634765625,-0.13265842199325562,-0.06436099857091904,-0.303873747587204
1684099533876559600,5.7345595703125,-0.19772104918956757,-0.553016722202301,-0.45823749899864197
1684099533886554400,5.744554443359375,-0.1358661949634552,-0.47871699929237366,-0.3514482378959656
1684099533896550400,5.75455029296875,-0.07088213413953781,-0.14572250843048096,-0.13682036101818085
1684099533906545400,5.76454541015625,-0.04700692743062973,0.14277148246765137,0.04333990812301636
1684099533916540700,5.774540771484375,-0.06555238366127014,0.3737828731536865,0.3035850524902344
1684099533926536400,5.784536376953125,-0.17665675282478333,0.3030086159706116,0.646070659160614
1684099533936531500,5.794531494140625,-0.34360232949256897,-0.08305440843105316,0.5624226331710815
1684099533946527500,5.804527587890625,-0.45053642988204956,-0.37887856364250183,-0.05448034405708313
1684099533956522500,5.8145224609375,-0.4154444932937622,-0.4891137480735779,-0.5886290073394775
1684099533966518500,5.8245185546875,-0.22521939873695374,-0.694948673248291,-0.6964540481567383
1684099533976513500,5.834513427734375,0.06920264661312103,-0.745604395866394,-0.4780508577823639
1684099533986509600,5.844509521484375,0.3041927218437195,-0.41447412967681885,-0.1684950739145279
1684099533996504600,5.854504638671875,0.3990721106529236,0.05445660650730133,0.056749507784843445
1684099534006500600,5.86450048828125,0.42667874693870544,0.3669000267982483,0.23109033703804016
1684099534016495400,5.874495361328125,0.38268041610717773,0.375510573387146,0.3831177055835724
1684099534026490400,5.884490478515625,0.2623949646949768,0.09251763671636581,0.4471329152584076
1684099534036486700,5.894486572265625,0.11963089555501938,-0.1746850460767746,0.31162726879119873
1684099534046481700,5.904481689453125,0.04933854565024376,-0.13973519206047058,0.06478597968816757
1684099534056477400,5.9144775390625,0.08306269347667694,0.07707514613866806,-0.08780010044574738
1684099534066472400,5.924472412109375,0.1344471126794815,0.25613993406295776,-0.10868605226278305
1684099534076468500,5.934468505859375,0.14281263947486877,0.3000786304473877,-0.08163978904485703
1684099534086463500,5.94446337890625,0.1216382309794426,0.22474035620689392,-0.04104254022240639
1684099534096459500,5.95445947265625,0.12454613298177719,-0.008627116680145264,0.05310259759426117
1684099534106454500,5.96445458984375,0.1697615534067154,-0.23497876524925232,0.18299800157546997
1684099534116450600,5.974450439453125,0.17212164402008057,-0.3084777295589447,0.3044964671134949
1684099534126445600,5.984445556640625,0.10907909274101257,-0.2702217400074005,0.3530668318271637
1684099534136440600,5.994440673828125,0.034000054001808167,-0.14348937571048737,0.3006534278392792
1684099534146436400,6.004436279296875,0.014047668315470219,0.0914708599448204,0.18074774742126465
1684099534156431400,6.014431396484375,0.046002138406038284,0.3175428807735443,0.06135716661810875
1684099534166427600,6.024427734375,0.06769748777151108,0.37335413694381714,0.02832639217376709
1684099534176422700,6.034422607421875,0.05352281779050827,0.2737250328063965,0.07132285833358765
1684099534186418400,6.04441845703125,0.038534730672836304,0.15070948004722595,0.1137152910232544
1684099534196413400,6.054413330078125,0.016567379236221313,0.06651151180267334,0.11647991836071014
1684099534206409500,6.064409423828125,0.006290555000305176,0.022485502064228058,0.08697861433029175
1684099534216404500,6.074404541015625,0.003936320543289185,-0.026756079867482185,0.05965857580304146
1684099534226400500,6.084400390625,0.016758641228079796,-0.07451694458723068,0.019573740661144257
1684099534236395500,6.0943955078125,0.059609703719615936,-0.06168423593044281,-0.007748693693429232
1684099534246390500,6.104390625,0.09367287904024124,-0.026067744940519333,0.021708549931645393
1684099534256386600,6.114386474609375,0.09175220876932144,-0.03244388476014137,0.08733149617910385
1684099534266381600,6.124381591796875,0.04278486967086792,-0.08225134015083313,0.173420712351799
1684099534276377300,6.13437744140625,-0.034743476659059525,-0.11367663741111755,0.24369166791439056
1684099534286372400,6.144372314453125,-0.12953059375286102,-0.05946426838636398,0.25322258472442627
1684099534296368600,6.15436865234375,-0.22588375210762024,0.03959493339061737,0.171759694814682
1684099534306363600,6.16436376953125,-0.31218501925468445,0.10561083257198334,0.05171387642621994
1684099534316359400,6.174359375,-0.34922000765800476,0.08869336545467377,-0.0624326691031456
1684099534326354400,6.1843544921875,-0.32222235202789307,0.02647092193365097,-0.08875273168087006
1684099534336350500,6.1943505859375,-0.279266893863678,-0.03816452994942665,-0.015949100255966187
1684099534346345500,6.204345458984375,-0.2594691216945648,-0.060256265103816986,0.07426149398088455
1684099534356341500,6.214341552734375,-0.27055877447128296,-0.04964170232415199,0.11882283538579941
1684099534366336500,6.22433642578125,-0.28657007217407227,-0.05782505124807358,0.12355739623308182
1684099534376331500,6.23433154296875,-0.2850441038608551,-0.07923633605241776,0.10829402506351471
1684099534386327600,6.24432763671875,-0.2649378776550293,-0.0835714191198349,0.09145005792379379
1684099534396322600,6.254322509765625,-0.24917887151241302,-0.02972070500254631,0.07279514521360397
1684099534406318300,6.264318359375,-0.21058841049671173,0.05891174077987671,0.033395931124687195
1684099534416313300,6.274313232421875,-0.12757527828216553,0.09371792525053024,-0.0016685796435922384
1684099534426309600,6.2843095703125,-0.038393858820199966,0.023559173569083214,0.030884280800819397
1684099534436304600,6.2943046875,0.02012511156499386,-0.06901310384273529,0.10754310339689255
1684099534446300400,6.304300537109375,0.05883597582578659,-0.06840087473392487,0.13632075488567352
1684099534456295400,6.31429541015625,0.09511089324951172,0.011630047112703323,0.07872751355171204
1684099534466291500,6.32429150390625,0.1306067556142807,0.07675751298666,0.007907302118837833
1684099534476286500,6.334286376953125,0.1642155945301056,0.03713659569621086,-0.05035467445850372
1684099534486281500,6.344281494140625,0.17750202119350433,-0.06295560300350189,-0.07969699054956436
1684099534496277500,6.354277587890625,0.15018971264362335,-0.14879781007766724,-0.0936647430062294
1684099534506272000,6.36427197265625,0.09042242914438248,-0.13622455298900604,-0.13338875770568848
1684099534516268000,6.37426806640625,0.03163980692625046,-0.07169882953166962,-0.16761331260204315
1684099534526263000,6.384262939453125,-0.007910564541816711,-0.01522713340818882,-0.15343329310417175
1684099534536259000,6.394259033203125,-0.06549450010061264,0.04321780055761337,-0.14517350494861603
1684099534546254000,6.404254150390625,-0.12377827614545822,0.06731870770454407,-0.13768470287322998
1684099534556250000,6.41425,-0.19540159404277802,-0.0008385041728615761,-0.16568784415721893
1684099534566245000,6.4242451171875,-0.26320287585258484,-0.027024738490581512,-0.24206654727458954
1684099534576241000,6.434240966796875,-0.3282015919685364,0.046738699078559875,-0.327943354845047
1684099534586236000,6.44423583984375,-0.39231932163238525,0.13349303603172302,-0.4194197654724121
1684099534596232200,6.454232177734375,-0.4369445741176605,0.15484918653964996,-0.47694218158721924
1684099534606227200,6.464227294921875,-0.4406755268573761,0.15873350203037262,-0.5115118622779846
1684099534616222200,6.47422216796875,-0.4266321361064911,0.1843389868736267,-0.5672587752342224
1684099534626218000,6.484218017578125,-0.4059852361679077,0.20103387534618378,-0.5752664804458618
1684099534636213000,6.494212890625,-0.37220412492752075,0.18420855700969696,-0.5464023351669312
1684099534646209000,6.504208984375,-0.3433868885040283,0.12437707185745239,-0.4969101548194885
1684099534656204000,6.5142041015625,-0.2495996654033661,0.09050619602203369,-0.4721544682979584
1684099534666200000,6.524199951171875,-0.1145983636379242,0.08307982981204987,-0.5538153648376465
1684099534676195000,6.534195068359375,0.004386880435049534,-0.015222769230604172,-0.672870397567749
1684099534686191000,6.544191162109375,0.11890312284231186,-0.15966221690177917,-0.7756673693656921
1684099534696186000,6.55418603515625,0.2204127013683319,-0.17580176889896393,-0.834999144077301
1684099534706182000,6.564181884765625,0.3053722381591797,-0.03280205652117729,-0.7585729360580444
1684099534716177000,6.574177001953125,0.32627564668655396,0.06849100440740585,-0.5100094676017761
1684099534726173200,6.584173095703125,0.2630471885204315,-0.10289137065410614,-0.1567220538854599
1684099534736168200,6.594168212890625,0.15531860291957855,-0.3209507465362549,0.15550056099891663
1684099534746163200,6.6041630859375,0.03794357180595398,-0.33670178055763245,0.10145930200815201
1684099534756159000,6.614158935546875,-0.09872559458017349,-0.05193929001688957,-0.32062801718711853
1684099534766154000,6.624154052734375,-0.18625330924987793,0.13195304572582245,-0.7099776864051819
1684099534776150000,6.63414990234375,-0.182977095246315,0.02618960291147232,-0.8232309818267822
1684099534786145300,6.644145263671875,-0.0852394849061966,-0.19654157757759094,-0.7663514018058777
1684099534796141000,6.65414111328125,0.08843589574098587,-0.31807494163513184,-0.6457549929618835
1684099534806136000,6.664135986328125,0.22503581643104553,-0.3551636338233948,-0.47670623660087585
1684099534816132000,6.674132080078125,0.3227258622646332,-0.5102696418762207,-0.2928629219532013
1684099534826127000,6.684127197265625,0.37652161717414856,-0.7769964337348938,-0.21046440303325653
1684099534836123000,6.694122802734375,0.35750558972358704,-0.8269376158714294,-0.19167020916938782
1684099534846118100,6.7041181640625,0.2663956582546234,-0.5278518199920654,-0.1776440143585205
1684099534856114200,6.7141142578125,0.12089146673679352,-0.08726593106985092,-0.13605369627475739
1684099534866109200,6.724109130859375,-0.05688289925456047,0.18324735760688782,-0.07993749529123306
1684099534876104200,6.734104248046875,-0.21604804694652557,0.12607991695404053,-0.06353215873241425
1684099534886100000,6.744099853515625,-0.2907416820526123,-0.0731966644525528,-0.020753081887960434
1684099534896095000,6.754094970703125,-0.3176406919956207,-0.264062762260437,-0.01254628412425518
1684099534906091300,6.76409130859375,-0.34161320328712463,-0.4005626142024994,-0.07670481503009796
1684099534916086300,6.774086181640625,-0.31922826170921326,-0.4628816545009613,-0.13171587884426117
1684099534926082000,6.78408203125,-0.26806560158729553,-0.4680083990097046,-0.2043088674545288
1684099534936077000,6.7940771484375,-0.23498250544071198,-0.4189132750034332,-0.2760144770145416
1684099534946073000,6.804072998046875,-0.22063317894935608,-0.35910743474960327,-0.260296106338501
1684099534956068000,6.814068115234375,-0.18169644474983215,-0.28348779678344727,-0.17494206130504608
1684099534966063900,6.82406396484375,-0.12900666892528534,-0.18669213354587555,-0.09233170747756958
1684099534976059100,6.83405908203125,-0.10670190304517746,-0.077224500477314,-0.020407721400260925
1684099534986054100,6.84405419921875,-0.1446831077337265,0.008464111015200615,-0.060972943902015686
1684099534996050200,6.85405029296875,-0.2115902453660965,0.10563726723194122,-0.2002061903476715
1684099535006045200,6.864045166015625,-0.23165756464004517,0.24454231560230255,-0.21652469038963318
1684099535016041000,6.874041015625,-0.1884017139673233,0.37415918707847595,-0.1340593844652176
1684099535026036000,6.884035888671875,-0.15544232726097107,0.3829822242259979,-0.11247312277555466
1684099535036032300,6.8940322265625,-0.09104043245315552,0.2597798705101013,-0.15684139728546143
1684099535046027300,6.90402734375,0.0016051316633820534,0.11004046350717545,-0.23045150935649872
1684099535056023000,6.91402294921875,0.01322716660797596,0.10311544686555862,-0.2741270959377289
1684099535066018000,6.92401806640625,-0.01389380730688572,0.3194950520992279,-0.2894649803638458
1684099535076014000,6.93401416015625,-0.06462835520505905,0.5163982510566711,-0.30193018913269043
1684099535086009000,6.944009033203125,-0.06798940896987915,0.5230256915092468,-0.32318565249443054
1684099535096005000,6.954005126953125,-0.015125658363103867,0.3366779386997223,-0.2997596859931946
1684099535106000100,6.964000244140625,0.020136360079050064,0.16802814602851868,-0.2905418276786804
1684099535115996200,6.97399609375,0.016760537400841713,0.19677670300006866,-0.2803075611591339
1684099535125991200,6.9839912109375,-0.0070668430998921394,0.38072508573532104,-0.2544693946838379
1684099535135986200,6.993986083984375,-0.06519325822591782,0.6423191428184509,-0.23076298832893372
1684099535145982000,7.00398193359375,-0.11868580430746078,0.8610807061195374,-0.1924288272857666
1684099535155977000,7.01397705078125,-0.16404369473457336,0.9952589869499207,-0.18795418739318848
1684099535165973200,7.02397314453125,-0.1682916283607483,1.0757683515548706,-0.27521127462387085
1684099535175968300,7.03396826171875,-0.1581100970506668,1.049056053161621,-0.29341182112693787
1684099535185964000,7.043964111328125,-0.1893380582332611,0.9457253217697144,-0.2551097273826599
1684099535195959000,7.053958984375,-0.24978329241275787,0.9080186486244202,-0.27635055780410767
1684099535205955000,7.063955078125,-0.3304162323474884,0.9266738295555115,-0.28624656796455383
1684099535215950000,7.0739501953125,-0.44808322191238403,0.9326419830322266,-0.25435546040534973
1684099535225946000,7.083946044921875,-0.5676040053367615,0.9053104519844055,-0.21865476667881012
1684099535235941000,7.093941162109375,-0.581998884677887,0.9835429191589355,-0.2150411307811737
1684099535245937200,7.103937255859375,-0.4523433446884155,1.1899319887161255,-0.3214503526687622
1684099535255932200,7.11393212890625,-0.32140210270881653,1.2714440822601318,-0.4346035420894623
1684099535265927200,7.12392724609375,-0.2593039572238922,1.343273639678955,-0.48193562030792236
1684099535275923000,7.1339228515625,-0.279347687959671,1.3922268152236938,-0.509831428527832
1684099535285918000,7.14391796875,-0.3239525258541107,1.394547700881958,-0.44748878479003906
1684099535295914200,7.153914306640625,-0.32055941224098206,1.2860630750656128,-0.3469315469264984
1684099535305909200,7.1639091796875,-0.2575845718383789,0.9393483996391296,-0.13314002752304077
1684099535315905000,7.173905029296875,-0.13908293843269348,0.6729830503463745,0.016000185161828995
1684099535325900000,7.183900146484375,-0.07702404260635376,0.7460982799530029,0.010178973898291588
1684099535335896000,7.19389599609375,-0.07805708050727844,0.8945394158363342,-0.06147976964712143
1684099535345891000,7.20389111328125,-0.12087181210517883,0.96465003490448,-0.23069456219673157
1684099535355887000,7.21388720703125,-0.15294212102890015,0.9583894610404968,-0.3809839189052582
1684099535365882000,7.223882080078125,-0.13673996925354004,0.9963921904563904,-0.47558826208114624
1684099535375878100,7.233878173828125,-0.0754193589091301,1.0636281967163086,-0.601433515548706
1684099535385873200,7.243873046875,0.035233259201049805,0.9679774045944214,-0.6820772290229797
1684099535395868200,7.2538681640625,0.09842287749052048,0.7223303914070129,-0.6639925241470337
1684099535405864000,7.263864013671875,0.0496147982776165,0.5935783386230469,-0.6147398948669434
1684099535415859000,7.27385888671875,-0.08974123001098633,0.5797759890556335,-0.5453818440437317
1684099535425855200,7.283855224609375,-0.21051928400993347,0.534965991973877,-0.38818907737731934
1684099535435850200,7.293850341796875,-0.2793862223625183,0.4429095387458801,-0.2513691782951355
1684099535445846000,7.303845947265625,-0.26779159903526306,0.47167882323265076,-0.22493308782577515
1684099535455841000,7.313841064453125,-0.1824231743812561,0.6055460572242737,-0.3871600925922394
1684099535465837000,7.323837158203125,-0.07299208641052246,0.5804131031036377,-0.5489587187767029
1684099535475832000,7.33383203125,-0.04518789052963257,0.5177062749862671,-0.6053889393806458
1684099535485828000,7.343828125,-0.051456376910209656,0.511069655418396,-0.5630519986152649
1684099535495823000,7.353822998046875,-0.044892750680446625,0.5008113980293274,-0.49140819907188416
1684099535505819600,7.363819580078125,-0.10055684298276901,0.4789896607398987,-0.472713440656662
1684099535515814700,7.373814697265625,-0.16272062063217163,0.4587664008140564,-0.4141995310783386
1684099535525810400,7.383810546875,-0.21019712090492249,0.2837408781051636,-0.28661516308784485
1684099535535805400,7.393805419921875,-0.2766789495944977,0.1854153871536255,-0.2267766147851944
1684099535545800400,7.403800537109375,-0.30581197142601013,0.2214488685131073,-0.2579133212566376
1684099535555796500,7.41379638671875,-0.2735786736011505,0.25565585494041443,-0.29149526357650757
1684099535565791500,7.42379150390625,-0.2517743706703186,0.36161118745803833,-0.4321748614311218
1684099535575787500,7.43378759765625,-0.2671719789505005,0.40241560339927673,-0.5340029001235962
1684099535585782500,7.443782470703125,-0.20448316633701324,0.42707356810569763,-0.5206537842750549
1684099535595778600,7.453778564453125,-0.09764592349529266,0.47461071610450745,-0.5546679496765137
1684099535605773600,7.463773681640625,-0.007176079787313938,0.5519431233406067,-0.5760332345962524
1684099535615769300,7.473769287109375,0.05156712606549263,0.5546830296516418,-0.44723716378211975
1684099535625764400,7.483764404296875,0.06274838000535965,0.6227985620498657,-0.38850292563438416
1684099535635760600,7.4937607421875,-0.007448018062859774,0.6836960315704346,-0.47189849615097046
1684099535645755600,7.503755615234375,-0.1031721904873848,0.5267266035079956,-0.5763109922409058
1684099535655751400,7.51375146484375,-0.1495703011751175,0.2650371789932251,-0.5872952342033386
1684099535665746400,7.523746337890625,-0.1635005623102188,0.20625507831573486,-0.6223424077033997
1684099535675741400,7.533741455078125,-0.15292835235595703,0.30221861600875854,-0.6612200140953064
1684099535685737500,7.543737548828125,-0.13380056619644165,0.36061057448387146,-0.5751962065696716
1684099535695732500,7.553732421875,-0.11756513267755508,0.44427964091300964,-0.5071476697921753
1684099535705728500,7.563728515625,-0.08161375671625137,0.38350293040275574,-0.41895100474357605
1684099535715723500,7.5737236328125,-0.04078616946935654,0.2565931975841522,-0.2931091785430908
1684099535725719600,7.583719482421875,0.01060605701059103,0.2777816653251648,-0.2752161920070648
1684099535735714600,7.593714599609375,-0.006229914724826813,0.296975314617157,-0.28053054213523865
1684099535745710300,7.60371044921875,-0.031886667013168335,0.40242862701416016,-0.36499884724617004
1684099535755705300,7.613705322265625,-0.08392909914255142,0.5410280823707581,-0.5107325911521912
1684099535765701600,7.62370166015625,-0.146511510014534,0.5617255568504333,-0.6102978587150574
1684099535775696600,7.633696533203125,-0.182022362947464,0.54524827003479,-0.6902518272399902
1684099535785692400,7.6436923828125,-0.1924659013748169,0.5882530212402344,-0.7672130465507507
1684099535795687400,7.6536875,-0.10219831764698029,0.47867247462272644,-0.7574738264083862
1684099535805683500,7.663683349609375,-0.004969540052115917,0.2963217496871948,-0.6890683770179749
1684099535815678500,7.673678466796875,0.04608885198831558,0.24746713042259216,-0.5919956564903259
1684099535825673500,7.683673583984375,0.038454946130514145,0.295476496219635,-0.541109561920166
1684099535835669500,7.69366943359375,0.019765682518482208,0.48582592606544495,-0.5506862998008728
1684099535845664500,7.70366455078125,-0.042820580303668976,0.6176290512084961,-0.6913393139839172
1684099535855660500,7.71366064453125,-0.05252034589648247,0.9348474740982056,-0.9505186676979065
1684099535865655300,7.7236552734375,-0.15450692176818848,0.9844495058059692,-1.1252005100250244
1684099535875651300,7.7336513671875,-0.19443969428539276,0.8260231018066406,-1.2628326416015625
1684099535885646600,7.743646484375,-0.040325604379177094,0.7885085344314575,-1.3077236413955688
1684099535895642600,7.753642578125,0.140846848487854,0.8874614834785461,-1.1664615869522095
1684099535905637400,7.763637451171875,0.221088707447052,0.9222476482391357,-0.9812999963760376
1684099535915633400,7.77363330078125,0.17531456053256989,0.546990156173706,-0.8002526760101318
1684099535925628400,7.78362841796875,0.22317008674144745,0.23618154227733612,-0.5687723755836487
1684099535935624400,7.79362451171875,0.34257611632347107,0.08589110523462296,-0.35652345418930054
1684099535945619500,7.803619384765625,0.3386176824569702,-0.06525219231843948,-0.2058502435684204
1684099535955615500,7.813615478515625,0.32865479588508606,0.013386696577072144,-0.1439192295074463
1684099535965610500,7.823610595703125,0.25767016410827637,0.15795761346817017,-0.2119051069021225
1684099535975606500,7.8336064453125,0.189533993601799,0.18220622837543488,-0.34105774760246277
1684099535985601500,7.8436015625,0.06481413543224335,0.09106256067752838,-0.5597121119499207
1684099535995596300,7.85359619140625,-0.09493957459926605,-0.08983532339334488,-0.6892725229263306
1684099536005592600,7.863592529296875,-0.2893544137477875,-0.1769561767578125,-0.7279219031333923
1684099536015587600,7.873587646484375,-0.42816901206970215,-0.12933993339538574,-0.7729399800300598
1684099536025583600,7.88358349609375,-0.4740726351737976,-0.036184731870889664,-0.7521906495094299
1684099536035578400,7.893578369140625,-0.47733449935913086,-0.0065346937626600266,-0.6445432901382446
1684099536045574400,7.903574462890625,-0.4808565378189087,0.04422910511493683,-0.6102807521820068
1684099536055569400,7.9135693359375,-0.4596143662929535,0.09212232381105423,-0.5455006957054138
1684099536065565700,7.923565673828125,-0.40177851915359497,0.10142150521278381,-0.34229418635368347
1684099536075560400,7.933560546875,-0.371707946062088,0.03388640284538269,-0.22429029643535614
1684099536085556500,7.943556396484375,-0.36434879899024963,-0.035767026245594025,-0.18825839459896088
1684099536095551500,7.953551513671875,-0.3759841322898865,-0.03748715668916702,-0.15786054730415344
1684099536105547500,7.963547607421875,-0.3338957130908966,-0.02358827367424965,-0.08366204053163528
1684099536115542500,7.97354248046875,-0.2772177755832672,-0.00966633390635252,-0.03645911067724228
1684099536125538600,7.98353857421875,-0.2631811499595642,-0.055093780159950256,-0.08170685917139053
1684099536135533600,7.993533447265625,-0.30730360746383667,-0.050928063690662384,-0.2456771582365036
1684099536145529600,8.003529541015626,-0.35661768913269043,-0.04137992486357689,-0.47543975710868835
1684099536155524600,8.013524658203124,-0.3668056130409241,-0.11110974103212357,-0.5687254667282104
1684099536165519400,8.023519287109375,-0.33369341492652893,-0.15446297824382782,-0.5890930891036987
1684099536175515400,8.033515380859376,-0.2606112062931061,-0.178059384226799,-0.45462507009506226
1684099536185510400,8.043510498046874,-0.18681035935878754,-0.2231997847557068,-0.19450528919696808
1684099536195506700,8.053506591796875,-0.1116786003112793,-0.21244940161705017,0.04712996631860733
1684099536205501400,8.06350146484375,-0.07670370489358902,-0.09925425052642822,0.17507809400558472
1684099536215497500,8.07349755859375,-0.042335350066423416,-0.04128788039088249,0.2127746045589447
1684099536225492500,8.083492431640625,-0.0354071669280529,-0.0962413102388382,0.16321875154972076
1684099536235488500,8.093488525390624,-0.05410601943731308,-0.17369987070560455,0.08703797310590744
1684099536245483500,8.1034833984375,-0.05834699794650078,-0.1929481029510498,0.09001843631267548
1684099536255479600,8.1134794921875,-0.09867364913225174,-0.13542568683624268,0.10703922808170319
1684099536265474600,8.123474609375,-0.17106489837169647,-0.025770390406250954,0.08852841705083847
1684099536275470600,8.133470703125,-0.234049454331398,0.011821193620562553,0.062303200364112854
1684099536285465600,8.143465576171875,-0.25695788860321045,-0.027934933081269264,0.04266723617911339
1684099536295461400,8.15346142578125,-0.25700926780700684,-0.15899787843227386,0.05429300293326378
1684099536305456400,8.163456298828125,-0.2463313490152359,-0.26231032609939575,0.042823608964681625
1684099536315451400,8.173451416015626,-0.2067815363407135,-0.2952656149864197,-0.0019366691121831536
1684099536325447700,8.18344775390625,-0.14336693286895752,-0.35633671283721924,-0.024025119841098785
1684099536335442400,8.1934423828125,-0.07249169051647186,-0.4183409810066223,-0.040696773678064346
1684099536345438500,8.2034384765625,-0.014370513148605824,-0.4502224028110504,-0.03733155131340027
1684099536355433500,8.21343359375,0.048900067806243896,-0.4838680028915405,0.03330612927675247
1684099536365429500,8.223429443359375,0.09715571999549866,-0.5372583270072937,0.1510182023048401
1684099536375424500,8.233424560546876,0.13579019904136658,-0.6056964993476868,0.2672441601753235
1684099536385420500,8.243420654296875,0.16407084465026855,-0.7376135587692261,0.4572676122188568
1684099536395415600,8.25341552734375,0.20059342682361603,-0.7915974259376526,0.5641586184501648
1684099536405411600,8.26341162109375,0.23240619897842407,-0.7105386853218079,0.4513635039329529
1684099536415406600,8.273406494140625,0.2512725591659546,-0.6500667929649353,0.2931634783744812
1684099536425402400,8.28340234375,0.251797080039978,-0.6377150416374207,0.19079628586769104
1684099536435397400,8.2933974609375,0.22900603711605072,-0.6114338636398315,0.17904774844646454
1684099536445393700,8.3033935546875,0.2540859580039978,-0.5615351796150208,0.24262775480747223
1684099536455388700,8.313388671875,0.3236168324947357,-0.5775207877159119,0.2862290143966675
1684099536465384400,8.323384521484375,0.39074721932411194,-0.5871835350990295,0.28489622473716736
1684099536475379500,8.33337939453125,0.43453332781791687,-0.5581833124160767,0.3307074010372162
1684099536485374500,8.34337451171875,0.45243483781814575,-0.435323029756546,0.4347418248653412
1684099536495370500,8.35337060546875,0.44679346680641174,-0.3033546209335327,0.4531826376914978
1684099536505365200,8.363365234375,0.3926047086715698,-0.26489225029945374,0.3601455092430115
1684099536515361300,8.373361328125,0.3218245506286621,-0.3042638897895813,0.27072668075561523
1684099536525356300,8.383356201171875,0.28176364302635193,-0.2952593266963959,0.20242173969745636
1684099536535352300,8.393352294921876,0.29442912340164185,-0.24176520109176636,0.1804964691400528
1684099536545347300,8.403347412109374,0.341701865196228,-0.1936596930027008,0.21611590683460236
1684099536555343000,8.413343017578125,0.3867604434490204,-0.18693654239177704,0.2740580439567566
1684099536565338400,8.42333837890625,0.42445963621139526,-0.23648586869239807,0.36797192692756653
1684099536575334400,8.43333447265625,0.4479053020477295,-0.4112369120121002,0.4972769320011139
1684099536585329400,8.443329345703125,0.465011864900589,-0.5187822580337524,0.551781177520752
1684099536595325200,8.4533251953125,0.4683874249458313,-0.5404196381568909,0.5229995846748352
1684099536605320200,8.4633203125,0.4443850517272949,-0.5019892454147339,0.5036120414733887
1684099536615316200,8.473316162109375,0.38844960927963257,-0.44072508811950684,0.40848785638809204
1684099536625311500,8.4833115234375,0.3452794849872589,-0.42573773860931396,0.3256596624851227
1684099536635306200,8.49330615234375,0.35978758335113525,-0.4207459092140198,0.3017610013484955
1684099536645302300,8.50330224609375,0.3891233205795288,-0.40827417373657227,0.31900501251220703
1684099536655297300,8.51329736328125,0.43113574385643005,-0.4226301908493042,0.3774680495262146
1684099536665293300,8.523293212890625,0.48635345697402954,-0.4841666519641876,0.4460109770298004
1684099536675288300,8.533288330078125,0.5186999440193176,-0.5066367983818054,0.4935491979122162
1684099536685284400,8.543284423828124,0.5143505930900574,-0.5217024683952332,0.5374438762664795
1684099536695279400,8.553279296875,0.4578137993812561,-0.5239325761795044,0.5339164733886719
1684099536705275400,8.563275390625,0.39991316199302673,-0.34216639399528503,0.5014035105705261
1684099536715270400,8.5732705078125,0.3872887194156647,-0.25657719373703003,0.434312105178833
1684099536725266200,8.58326611328125,0.39281946420669556,-0.35966208577156067,0.3602526783943176
1684099536735261200,8.59326123046875,0.4398050606250763,-0.548930287361145,0.37518930435180664
1684099536745257500,8.603257568359375,0.4759073853492737,-0.7454642057418823,0.48295849561691284
1684099536755252500,8.61325244140625,0.48798668384552,-0.894412100315094,0.633711040019989
1684099536765248300,8.623248291015624,0.4656701982021332,-0.934127688407898,0.7747215628623962
1684099536775243300,8.6332431640625,0.3897618353366852,-0.8324193954467773,0.8191758990287781
1684099536785239300,8.6432392578125,0.2689627408981323,-0.7088170647621155,0.7708442807197571
1684099536795234300,8.653234375,0.14194408059120178,-0.6684184670448303,0.6745582222938538
1684099536805230300,8.663230224609375,0.03280762583017349,-0.6444702744483948,0.5558900833129883
1684099536815225300,8.673225341796876,-0.054730478674173355,-0.653558075428009,0.4514816403388977
1684099536825220400,8.683220458984374,-0.07227003574371338,-0.7255931496620178,0.40036553144454956
1684099536835216400,8.69321630859375,-0.01577107235789299,-0.7624006867408752,0.376873254776001
1684099536845211400,8.70321142578125,0.07786697894334793,-0.7553946375846863,0.3826026916503906
1684099536855207200,8.713207275390625,0.1757485270500183,-0.7428932785987854,0.4544323980808258
1684099536865202200,8.7232021484375,0.2597309648990631,-0.6270275712013245,0.5758423805236816
1684099536875198500,8.733198486328124,0.28829869627952576,-0.47012263536453247,0.7339159250259399
1684099536885193500,8.743193359375,0.24814505875110626,-0.46046680212020874,0.791155219078064
1684099536895189200,8.753189208984375,0.17552173137664795,-0.5975974798202515,0.7233626246452332
1684099536905184300,8.763184326171874,0.12082222104072571,-0.7372055053710938,0.6192314624786377
1684099536915180300,8.77318017578125,0.12546277046203613,-0.8087433576583862,0.4797765910625458
1684099536925175300,8.78317529296875,0.17257757484912872,-0.7663248777389526,0.39118942618370056
1684099536935171300,8.79317138671875,0.20578478276729584,-0.7028822302818298,0.38397863507270813
1684099536945166300,8.803166259765625,0.19106356799602509,-0.738002359867096,0.4287416934967041
1684099536955162400,8.813162353515626,0.1753661036491394,-0.7017897367477417,0.5867488980293274
1684099536965157400,8.823157470703125,0.17542174458503723,-0.5209019780158997,0.7062836289405823
1684099536975153200,8.833153076171875,0.12783612310886383,-0.534691572189331,0.6062121391296387
1684099536985148200,8.843148193359376,0.0900878831744194,-0.7660768032073975,0.4313906729221344
1684099536995144400,8.85314453125,0.1216689795255661,-0.948361873626709,0.2523317039012909
1684099537005139500,8.863139404296875,0.1932653784751892,-0.9455006718635559,0.1458900272846222
1684099537015134200,8.87313427734375,0.2821827530860901,-0.8394275307655334,0.15506941080093384
1684099537025130200,8.883130126953125,0.3169250786304474,-0.6664898991584778,0.2769421935081482
1684099537035125200,8.893125244140625,0.2544907331466675,-0.5026402473449707,0.39519375562667847
1684099537045121300,8.903121337890624,0.16898581385612488,-0.3280893862247467,0.48249000310897827
1684099537055116300,8.9131162109375,0.07532909512519836,-0.27607011795043945,0.40456777811050415
1684099537065112300,8.9231123046875,-0.02398783154785633,-0.5870789885520935,0.16157174110412598
1684099537075107300,8.933107421875,-0.06348277628421783,-0.9631285071372986,0.06535544991493225
1684099537085103400,8.943103271484375,0.007166509050875902,-1.1342930793762207,0.07971008867025375
1684099537095098400,8.953098388671876,0.08744058012962341,-1.1265678405761719,0.03365018591284752
1684099537105094100,8.96309423828125,0.10523364692926407,-1.0560996532440186,0.004355601500719786
1684099537115089200,8.973089111328125,0.09006454795598984,-0.9325806498527527,0.09327881783246994
1684099537125085400,8.98308544921875,0.0503590852022171,-0.8114746809005737,0.2047046422958374
1684099537135080400,8.99308056640625,-0.015003679320216179,-0.6854895949363708,0.24377775192260742
1684099537145076200,9.003076171875,-0.08740691095590591,-0.5826200246810913,0.1999053955078125
1684099537155071200,9.0130712890625,-0.19142065942287445,-0.5863987803459167,0.12841789424419403
1684099537165067300,9.0230673828125,-0.2602621614933014,-0.6615114212036133,0.11533845961093903
1684099537175062300,9.033062255859376,-0.2597401738166809,-0.573818564414978,0.16491428017616272
1684099537185057300,9.043057373046874,-0.2325640767812729,-0.4037250578403473,0.13703280687332153
1684099537195053300,9.05305322265625,-0.20058563351631165,-0.3318884074687958,0.037239640951156616
1684099537205048300,9.06304833984375,-0.1330995112657547,-0.2198147028684616,0.07704433053731918
1684099537215044400,9.07304443359375,-0.13007788360118866,-0.04109955206513405,0.20219585299491882
1684099537225039400,9.083039306640625,-0.21259261667728424,0.04948114976286888,0.19023768603801727
1684099537235035100,9.09303515625,-0.26015082001686096,-0.016590546816587448,0.07193394750356674
1684099537245030100,9.103030029296875,-0.21710209548473358,-0.10949443280696869,-0.001616557128727436
1684099537255026400,9.1130263671875,-0.16975587606430054,-0.11313603818416595,-0.0256156325340271
1684099537265021400,9.123021484375,-0.17738141119480133,-0.043969497084617615,0.007609428837895393
1684099537275017200,9.133017333984375,-0.23980990052223206,0.013269294053316116,0.11957751214504242
1684099537285012200,9.14301220703125,-0.3299659788608551,0.0272042416036129,0.23947422206401825
1684099537295008300,9.15300830078125,-0.4080088436603546,-0.006181146018207073,0.2938469350337982
1684099537305003300,9.163003173828125,-0.4189716577529907,-0.12075002491474152,0.2382359802722931
1684099537314999300,9.172999267578126,-0.3476268947124481,-0.25469768047332764,0.08900788426399231
1684099537324994300,9.182994384765625,-0.2628479301929474,-0.36572498083114624,-0.05282185599207878
1684099537334990300,9.192990234375,-0.17159898579120636,-0.4640030860900879,-0.13360512256622314
1684099537344985300,9.2029853515625,-0.0861540213227272,-0.5264543890953064,-0.1482030749320984
1684099537354981000,9.212981201171875,-0.01688520237803459,-0.46321654319763184,-0.036251768469810486
1684099537364976000,9.22297607421875,0.010853718966245651,-0.23911011219024658,0.25752684473991394
1684099537374972400,9.232972412109374,-0.018184857442975044,0.10168767720460892,0.6223532557487488
1684099537384967400,9.242967529296875,-0.1300612986087799,0.4374876916408539,0.6325976848602295
1684099537394962400,9.25296240234375,-0.31471049785614014,0.4100289046764374,0.24586912989616394
1684099537404958200,9.262958251953124,-0.42547133564949036,-0.1466032713651657,-0.18184895813465118
1684099537414953200,9.272953125,-0.4098609685897827,-0.7139907479286194,-0.4027773439884186
1684099537424949200,9.28294921875,-0.30574363470077515,-0.7954556941986084,-0.34964534640312195
1684099537434944300,9.2929443359375,-0.1407909095287323,-0.4444124400615692,-0.15250535309314728
1684099537444940300,9.302940185546875,0.06332885473966599,0.052213482558727264,0.0007709607016295195
1684099537454935300,9.312935302734376,0.22273901104927063,0.3918706476688385,0.10395300388336182
1684099537464931300,9.322931396484375,0.2687566578388214,0.5489699840545654,0.2955509424209595
1684099537474926300,9.33292626953125,0.17826484143733978,0.5299944281578064,0.4096633791923523
1684099537484922000,9.342922119140624,-0.03248697891831398,0.38969412446022034,0.2435399740934372
1684099537494917000,9.352917236328125,-0.2506003975868225,0.06010798364877701,-0.08605442941188812
1684099537504913400,9.362913330078126,-0.3052949011325836,-0.34594711661338806,-0.32358017563819885
1684099537514908400,9.372908447265624,-0.24153083562850952,-0.4912971258163452,-0.3655020594596863
1684099537524904200,9.382904296875,-0.13397155702114105,-0.3740027844905853,-0.24328359961509705
1684099537534899200,9.392899169921876,-0.035953912883996964,-0.1162806898355484,-0.041973378509283066
1684099537544895500,9.4028955078125,0.023874573409557343,0.05336745083332062,0.12731346487998962
1684099537554890500,9.412890380859375,0.04701850935816765,0.07686266303062439,0.2049986720085144
1684099537564886300,9.42288623046875,0.034795183688402176,0.08040841668844223,0.20889294147491455
1684099537574881300,9.43288134765625,0.002207147656008601,0.07491803914308548,0.183979332447052
1684099537584877300,9.442877197265625,-0.07504977285861969,0.0778646469116211,0.11920136958360672
1684099537594872300,9.452872314453124,-0.2026602029800415,0.05406850948929787,0.00511874258518219
1684099537604867600,9.46286767578125,-0.2771604657173157,-0.017067838460206985,-0.1111968457698822
1684099537614863400,9.47286328125,-0.24088315665721893,-0.09573975205421448,-0.16071806848049164
1684099537624858400,9.4828583984375,-0.14145050942897797,-0.1498948335647583,-0.12838684022426605
1684099537634854400,9.4928544921875,-0.021475104615092278,-0.11514937877655029,-0.05228167399764061
1684099537644849400,9.502849365234376,0.06898828595876694,-0.05638178810477257,0.019947078078985214
1684099537654845200,9.51284521484375,0.11972443759441376,-0.03884061053395271,0.05939088761806488
1684099537664840400,9.52284033203125,0.14374707639217377,-0.04482516646385193,0.0614263191819191
1684099537674836500,9.53283642578125,0.14357957243919373,-0.06874807924032211,0.04381084442138672
1684099537684831500,9.54283154296875,0.1300467848777771,-0.08053580671548843,0.02822856418788433
1684099537694827300,9.5528271484375,0.0970880314707756,-0.062868133187294,0.02707967720925808
1684099537704822300,9.562822265625,0.06677506119012833,-0.017447270452976227,0.03224105015397072
1684099537714818300,9.572818359375,0.03252974525094032,0.03590409830212593,0.053647007793188095
1684099537724813600,9.5828134765625,0.00541992112994194,0.07576150447130203,0.08209089934825897
1684099537734809300,9.592809326171874,-0.008948365226387978,0.09680101275444031,0.10900400578975677
1684099537744804400,9.602804443359375,-0.019340433180332184,0.12406802922487259,0.12177633494138718
1684099537754800400,9.61280029296875,-0.011267062276601791,0.1449011266231537,0.10995616018772125
1684099537764795400,9.62279541015625,0.002492142142727971,0.14788375794887543,0.07753732800483704
1684099537774791200,9.632791259765625,0.016573073342442513,0.12299757450819016,0.039799805730581284
1684099537784786400,9.642786376953126,0.02464396320283413,0.0858059823513031,0.004339545965194702
1684099537794782500,9.652782470703125,0.014399049803614616,0.04289926216006279,-0.010527017526328564
1684099537804777500,9.662777587890625,-0.007386495359241962,0.0010088293347507715,-0.02044622227549553
1684099537814772500,9.6727724609375,-0.035539302974939346,-0.025559399276971817,-0.012800285592675209
1684099537824768300,9.682768310546875,-0.0685458704829216,-0.012855349108576775,0.0028652967885136604
1684099537834763300,9.69276318359375,-0.10567992180585861,-0.0005800412036478519,0.02606542408466339
1684099537844759300,9.70275927734375,-0.1437671035528183,-0.002915969118475914,0.044670220464468
1684099537854754600,9.712754638671875,-0.16589504480361938,0.025707153603434563,0.03398854658007622
1684099537864750300,9.722750244140625,-0.16763195395469666,0.09850798547267914,-0.0017034979537129402
1684099537874745300,9.732745361328124,-0.1653381735086441,0.17256410419940948,-0.03218470886349678
1684099537884741400,9.742741455078125,-0.16127313673496246,0.20149415731430054,-0.041422586888074875
1684099537894736400,9.752736328125,-0.1550045907497406,0.19061648845672607,-0.03196783363819122
1684099537904732200,9.762732177734375,-0.15949733555316925,0.14909780025482178,-0.016733752563595772
1684099537914727400,9.7727275390625,-0.16618400812149048,0.12301746010780334,-0.012607449665665627
1684099537924723500,9.782723388671876,-0.18526238203048706,0.11255517601966858,-0.01872006058692932
1684099537934718500,9.792718505859375,-0.1903253197669983,0.11239511519670486,-0.04356921836733818
1684099537944714200,9.80271435546875,-0.18323084712028503,0.13237795233726501,-0.07191772013902664
1684099537954709200,9.812709228515626,-0.1680910438299179,0.1405794322490692,-0.1143788993358612
1684099537964705300,9.822705322265625,-0.14705444872379303,0.1360793560743332,-0.13547389209270477
1684099537974700500,9.832700439453125,-0.12732282280921936,0.11892219632863998,-0.13142108917236328
1684099537984696300,9.8426962890625,-0.1091284304857254,0.10661018639802933,-0.11091462522745132
1684099537994691300,9.85269140625,-0.10174455493688583,0.09366456419229507,-0.08551499247550964
1684099538004687400,9.862687255859376,-0.09703779220581055,0.07713045179843903,-0.06881687790155411
1684099538014682400,9.872682373046874,-0.08622562140226364,0.07112715393304825,-0.0635821744799614
1684099538024677400,9.882677490234375,-0.07874980568885803,0.07445063441991806,-0.05021951347589493
1684099538034673400,9.89267333984375,-0.06370534002780914,0.0652099996805191,-0.02970225363969803
1684099538044668400,9.90266845703125,-0.04526535049080849,0.05967538058757782,-0.0005920476978644729
1684099538054664400,9.91266455078125,-0.032253414392471313,0.06022132933139801,0.013713388703763485
1684099538064659500,9.922659423828126,-0.02148679457604885,0.06209177151322365,0.014656202867627144
1684099538074655200,9.9326552734375,-0.00935662817209959,0.042278919368982315,0.010296608321368694
1684099538084650200,9.942650146484375,0.0199142936617136,0.020557083189487457,0.006391420029103756
1684099538094646500,9.952646484375,0.06831298023462296,0.07908856868743896,-0.014032629318535328
1684099538104641500,9.9626416015625,0.16160543262958527,0.3138491213321686,0.03505117446184158
1684099538114637300,9.97263720703125,0.2272651493549347,0.5020245909690857,0.08737216889858246
1684099538124632300,9.98263232421875,0.19291600584983826,0.3481784760951996,0.058993276208639145
1684099538134628400,9.99262841796875,0.1195610910654068,-0.06958868354558945,-0.037524208426475525
1684099538144623400,10.002623291015626,0.11300348490476608,-0.35089123249053955,-0.14339296519756317
1684099538154619400,10.012619384765625,0.1471630483865738,-0.2731735110282898,-0.0507088378071785
1684099538164614400,10.022614501953125,0.11557862162590027,-0.15868540108203888,0.07805103063583374
1684099538174610400,10.0326103515625,0.05332270264625549,-0.09666917473077774,0.09219188243150711
1684099538184605400,10.04260546875,0.009959451854228973,-0.12438996136188507,0.05420387536287308
1684099538194601200,10.052601318359375,-0.032762445509433746,-0.24014052748680115,0.02129892259836197
1684099538204596200,10.06259619140625,-0.07753271609544754,-0.3753373324871063,-0.006054380908608437
1684099538214592500,10.072592529296875,-0.10080501437187195,-0.45641326904296875,-0.03744719177484512
1684099538224587500,10.08258740234375,-0.09583857655525208,-0.4516822099685669,-0.024819284677505493
1684099538234583300,10.092583251953124,-0.06419968605041504,-0.3304945230484009,0.042454298585653305
1684099538244578300,10.102578369140625,-0.04154416173696518,-0.19839386641979218,0.1216648668050766
1684099538254574300,10.11257421875,-0.06539196521043777,-0.24641864001750946,0.12544788420200348
1684099538264569300,10.1225693359375,-0.09752970933914185,-0.44631826877593994,0.0697801262140274
1684099538274565400,10.1325654296875,-0.12239884585142136,-0.5926198363304138,0.009081889875233173
1684099538284560400,10.142560302734376,-0.15460684895515442,-0.6198354959487915,-0.002982229460030794
1684099538294555400,10.152555419921875,-0.18207097053527832,-0.5694559216499329,0.0024937624111771584
1684099538304551400,10.162551513671875,-0.19003163278102875,-0.49357977509498596,0.012669892981648445
1684099538314546400,10.17254638671875,-0.19778595864772797,-0.40193402767181396,0.0030100755393505096
1684099538324542200,10.182542236328125,-0.20598383247852325,-0.2637914717197418,0.028732992708683014
1684099538334537200,10.192537109375,-0.2168697714805603,-0.10621677339076996,0.10575266927480698
1684099538344533500,10.202533447265624,-0.23380634188652039,0.0388641357421875,0.1825716495513916
1684099538354528500,10.212528564453125,-0.20920857787132263,0.10822136700153351,0.1658073216676712
1684099538364524300,10.222524169921876,-0.11782555282115936,0.09227733314037323,0.05344787612557411
1684099538374519300,10.232519287109374,-0.048579901456832886,0.019910722970962524,-0.038778189569711685
1684099538384515300,10.242515380859375,-0.03380913659930229,-0.08029775321483612,-0.08155378699302673
1684099538394510300,10.25251025390625,-0.026864148676395416,-0.10465635359287262,-0.10430624336004257
1684099538404506400,10.26250634765625,-0.022104445844888687,-0.04820006713271141,-0.09553995728492737
1684099538414501400,10.27250146484375,-0.032074518501758575,0.03058103285729885,-0.07903900742530823
1684099538424497400,10.282497314453124,-0.04458295553922653,0.12263831496238708,-0.07045453041791916
1684099538434492400,10.292492431640625,-0.04184336215257645,0.17623017728328705,-0.057381339371204376
1684099538444488200,10.30248828125,-0.04467010125517845,0.14210918545722961,-0.03843314200639725
1684099538454483200,10.312483154296874,-0.07023671269416809,0.052662674337625504,-0.014748850837349892
1684099538464479500,10.3224794921875,-0.10756852477788925,-0.0022755726240575314,-0.04918548837304115
1684099538474474500,10.332474609375,-0.14152570068836212,0.014411794021725655,-0.11659248918294907
1684099538484470300,10.34247021484375,-0.16945748031139374,0.04803311079740524,-0.1565895676612854
1684099538494465300,10.35246533203125,-0.18542899191379547,0.054731227457523346,-0.16513857245445251
1684099538504461300,10.36246142578125,-0.2088024765253067,0.09025055915117264,-0.18032783269882202
1684099538514456000,10.3724560546875,-0.23697338998317719,0.16144858300685883,-0.18090148270130157
1684099538524452000,10.3824521484375,-0.27500057220458984,0.29791736602783203,-0.16768544912338257
1684099538534446800,10.39244677734375,-0.33893296122550964,0.5160068273544312,-0.22467736899852753
1684099538544441900,10.40244189453125,-0.3814149796962738,0.6349416375160217,-0.3261277973651886
1684099538554438000,10.41243798828125,-0.33482375741004944,0.5392627716064453,-0.37305909395217896
1684099538564433000,10.422432861328126,-0.22607135772705078,0.3816736042499542,-0.3490651249885559
1684099538574429000,10.432428955078125,-0.12070364505052567,0.34978944063186646,-0.27949854731559753
1684099538584424000,10.442423828125,-0.06901134550571442,0.38033461570739746,-0.25651809573173523
1684099538594420000,10.452419921875,-0.07549960166215897,0.37866029143333435,-0.2760057747364044
1684099538604415000,10.4624150390625,-0.11409253627061844,0.35897529125213623,-0.2790337800979614
1684099538614410800,10.47241064453125,-0.174452543258667,0.34727469086647034,-0.28717854619026184
1684099538624405800,10.48240576171875,-0.2601257264614105,0.30758610367774963,-0.3017561435699463
1684099538634402000,10.492402099609375,-0.33595868945121765,0.3296424150466919,-0.3416396379470825
1684099538644397000,10.50239697265625,-0.34723424911499023,0.4575308859348297,-0.4186191260814667
1684099538654392800,10.512392822265625,-0.3384878933429718,0.5998992323875427,-0.4637722074985504
1684099538664387800,10.522387939453125,-0.3939012289047241,0.6265702843666077,-0.5063261389732361
1684099538674384000,10.5323837890625,-0.3985183537006378,0.5062968730926514,-0.5368291735649109
1684099538684379000,10.54237890625,-0.38576772809028625,0.487057626247406,-0.5500932335853577
1684099538694375000,10.552375,-0.3898751139640808,0.4061039090156555,-0.5189739465713501
1684099538704370000,10.562369873046874,-0.39009717106819153,0.40719670057296753,-0.429232656955719
1684099538714366000,10.572365966796875,-0.34561172127723694,0.5341152548789978,-0.39849257469177246
1684099538724361000,10.58236083984375,-0.3020586371421814,0.5829368233680725,-0.40101832151412964
1684099538734357000,10.59235693359375,-0.27657219767570496,0.5620853900909424,-0.4302632808685303
1684099538744351700,10.602351806640625,-0.23262850940227509,0.700638473033905,-0.5232202410697937
1684099538754348000,10.61234814453125,-0.19469870626926422,0.8008707761764526,-0.5616909265518188
1684099538764343000,10.622343017578125,-0.1736631840467453,0.858631432056427,-0.6557562947273254
1684099538774339000,10.632339111328125,-0.1746395081281662,0.9121209979057312,-0.778626561164856
1684099538784333800,10.642333740234376,-0.21937249600887299,0.9350667595863342,-0.8094546794891357
1684099538794329900,10.652329833984375,-0.21307039260864258,0.967658281326294,-0.7948091626167297
1684099538804324900,10.662324951171875,-0.19556280970573425,0.9944633841514587,-0.7772470116615295
1684099538814321200,10.672321044921874,-0.19109775125980377,0.8971458673477173,-0.7350398898124695
1684099538824316000,10.68231591796875,-0.12238436192274094,0.7554924488067627,-0.6600048542022705
1684099538834311000,10.692310791015625,0.02140343002974987,0.7353493571281433,-0.5708752870559692
1684099538844307000,10.702306884765624,0.10756836831569672,0.6817307472229004,-0.4319070279598236
1684099538854302000,10.712302001953125,0.09393830597400665,0.638661801815033,-0.3239363729953766
1684099538864298000,10.722298095703126,0.05860668048262596,0.6548972725868225,-0.30862849950790405
1684099538874292700,10.732292724609374,-0.05193474143743515,0.7899354696273804,-0.34581369161605835
1684099538884289000,10.7422890625,-0.19215276837348938,0.8113593459129333,-0.3933999240398407
1684099538894284000,10.752283935546876,-0.2996920049190521,0.7225602269172668,-0.46665897965431213
1684099538904280000,10.762280029296875,-0.3560050427913666,0.7018533945083618,-0.5415973663330078
1684099538914274800,10.77227490234375,-0.2971406877040863,0.7425140142440796,-0.5983262062072754
1684099538924270800,10.782270751953124,-0.20854854583740234,0.8312225937843323,-0.6292504072189331
1684099538934265900,10.792265869140625,-0.20438414812088013,0.9652182459831238,-0.6509493589401245
1684099538944262100,10.80226220703125,-0.27171042561531067,1.0658677816390991,-0.6684862375259399
1684099538954257000,10.8122568359375,-0.3484475612640381,1.0446090698242188,-0.6518611907958984
1684099538964253000,10.8222529296875,-0.33839818835258484,0.9045153260231018,-0.6659746766090393
1684099538974248000,10.832248046875,-0.3016178011894226,0.7474229335784912,-0.6647157669067383
1684099538984244000,10.842243896484375,-0.259465754032135,0.6555572152137756,-0.6591476798057556
1684099538994239000,10.852239013671875,-0.22779226303100586,0.6174220442771912,-0.6608251929283142
1684099539004235000,10.862235107421874,-0.24450652301311493,0.6557116508483887,-0.6459234952926636
1684099539014230000,10.87222998046875,-0.30377838015556335,0.7623867392539978,-0.6643235683441162
1684099539024226000,10.88222607421875,-0.3231181502342224,0.8142145872116089,-0.7015801072120667
1684099539034221000,10.892220947265624,-0.2785504162311554,0.7848497629165649,-0.7207759022712708
1684099539044216800,10.902216796875,-0.1625860184431076,0.7003298401832581,-0.7045523524284363
1684099539054211800,10.9122119140625,-0.07356161624193192,0.6260321736335754,-0.6693102121353149
1684099539064208100,10.9222080078125,-0.022508684545755386,0.5310661792755127,-0.6693597435951233
1684099539074203100,10.932203125,0.049452587962150574,0.43849605321884155,-0.655491054058075
1684099539084199000,10.942198974609376,0.08628877252340317,0.3701586425304413,-0.6290184855461121
1684099539094194000,10.95219384765625,0.08511830866336823,0.36274757981300354,-0.6198846101760864
1684099539104190000,10.96218994140625,0.07454008609056473,0.31951993703842163,-0.5970543622970581
1684099539114185000,10.97218505859375,0.09111400693655014,0.3310226500034332,-0.5028157234191895
1684099539124181000,10.982180908203125,0.14491204917430878,0.3370097875595093,-0.4344550669193268
1684099539134176000,10.992176025390625,0.17676211893558502,0.3788509666919708,-0.47317954897880554
1684099539144171000,11.0021708984375,0.13470016419887543,0.35755807161331177,-0.5030726194381714
1684099539154167000,11.0121669921875,0.13039569556713104,0.3053846061229706,-0.49202048778533936
1684099539164162000,11.022162109375,0.14416226744651794,0.26719218492507935,-0.46760714054107666
1684099539174157800,11.03215771484375,0.1995762586593628,0.2545506954193115,-0.45074158906936646
1684099539184153000,11.042153076171875,0.17824630439281464,0.2100980281829834,-0.4299299418926239
1684099539194149000,11.052149169921876,0.1498357057571411,0.15460094809532166,-0.4071758985519409
1684099539204144000,11.06214404296875,0.1282573789358139,0.14200924336910248,-0.3684944808483124
1684099539214140000,11.072139892578125,0.1278403401374817,0.1990397721529007,-0.3544937074184418
1684099539224135000,11.082135009765626,0.10270282626152039,0.23484620451927185,-0.35971707105636597
1684099539234131000,11.092130859375,0.08860377967357635,0.24302317202091217,-0.36234694719314575
1684099539244126200,11.102126220703125,0.11849645525217056,0.23212936520576477,-0.3321579694747925
1684099539254122000,11.1121220703125,0.16088305413722992,0.2655578851699829,-0.3305584788322449
1684099539264117000,11.122116943359375,0.17831449210643768,0.2210705280303955,-0.331487774848938
1684099539274113000,11.132113037109375,0.1884928196668625,0.18462198972702026,-0.31661590933799744
1684099539284108000,11.14210791015625,0.17600460350513458,0.18026548624038696,-0.3280797004699707
1684099539294103800,11.152103759765625,0.13956350088119507,0.16641783714294434,-0.34578680992126465
1684099539304099000,11.16209912109375,0.10790031403303146,0.15076622366905212,-0.3338562548160553
1684099539314095000,11.17209521484375,0.09036765247583389,0.16028942167758942,-0.30927473306655884
1684099539324090000,11.182090087890625,0.08818740397691727,0.16876155138015747,-0.2610839903354645
1684099539334086000,11.1920859375,0.09115736186504364,0.15373307466506958,-0.23700368404388428
1684099539344081000,11.202080810546875,0.09262540936470032,0.148577481508255,-0.2016136199235916
1684099539354077000,11.212076904296875,0.07118590176105499,0.1793852001428604,-0.15432147681713104
1684099539364072200,11.222072265625,0.09666303545236588,0.26652348041534424,-0.06035986542701721
1684099539374068000,11.23206787109375,0.10906750708818436,0.2926483154296875,0.03976939618587494
1684099539384063000,11.24206298828125,0.10759218037128448,0.27787259221076965,0.09262721240520477
1684099539394059000,11.25205908203125,0.07369626313447952,0.2686188817024231,0.11389201879501343
1684099539404054000,11.262053955078125,0.023594152182340622,0.27128416299819946,0.08808419853448868
1684099539414049800,11.2720498046875,0.023298008367419243,0.26106587052345276,0.0796225368976593
1684099539424045000,11.282045166015624,0.020349811762571335,0.2541376054286957,0.05373203009366989
1684099539434041000,11.292041015625,0.010943527333438396,0.2697564959526062,0.031176922842860222
1684099539444036000,11.3020361328125,0.01029311865568161,0.29773783683776855,0.06112189590930939
1684099539454032000,11.312031982421875,0.009619604796171188,0.26438814401626587,0.07265710830688477
1684099539464027000,11.32202685546875,-0.0029456443153321743,0.22227352857589722,0.07052157074213028
1684099539474023000,11.33202294921875,-0.011585204862058163,0.1954946517944336,0.06576357036828995
1684099539484018200,11.34201806640625,-0.011081688106060028,0.16029062867164612,0.04605488479137421
1684099539494014000,11.352013916015625,-0.015769118443131447,0.10866259783506393,0.030165934935212135
1684099539504009000,11.362009033203124,-0.0282281544059515,0.05759241804480553,0.014902323484420776
1684099539514005000,11.3720048828125,-0.04514694958925247,0.026176974177360535,-0.005009066313505173
1684099539524000000,11.382,-0.05309431999921799,-0.008018533699214458,-0.02173866145312786
1684099539533995000,11.3919951171875,-0.05764193460345268,-0.06333691626787186,-0.03700150549411774
1684099539543991000,11.401990966796875,-0.05475097894668579,-0.11894329637289047,-0.03970683366060257
1684099539553986000,11.411986083984376,-0.04678626358509064,-0.16192272305488586,-0.0477738156914711
1684099539563982000,11.421982177734375,-0.045591577887535095,-0.19734030961990356,-0.057195231318473816
1684099539573977000,11.43197705078125,-0.039566174149513245,-0.21903762221336365,-0.03887081891298294
1684099539583972900,11.441972900390626,-0.027592407539486885,-0.2266266942024231,-0.0170455165207386
1684099539593967900,11.4519677734375,-0.013997768983244896,-0.23358634114265442,-0.00073445332236588
1684099539603964000,11.4619638671875,-0.0043822359293699265,-0.2565559446811676,0.01660933345556259
1684099539613959200,11.471959228515624,0.007710379548370838,-0.2804572880268097,0.03259602561593056
1684099539623955000,11.481954833984375,0.012566275894641876,-0.29177606105804443,0.06341741979122162
1684099539633950000,11.491949951171875,0.025596588850021362,-0.30905890464782715,0.09116702526807785
1684099539643946000,11.501946044921874,0.03666812181472778,-0.32503968477249146,0.1188897043466568
1684099539653941000,11.51194091796875,0.03911769762635231,-0.33383265137672424,0.14223071932792664
1684099539663936800,11.521936767578126,0.03648517653346062,-0.334963321685791,0.16886509954929352
1684099539673932000,11.53193212890625,0.03676001355051994,-0.3086739480495453,0.18643797934055328
1684099539683928000,11.541927978515625,0.03390870615839958,-0.2731422185897827,0.1888001710176468
1684099539693923000,11.551923095703126,0.03513801842927933,-0.23904816806316376,0.18465816974639893
1684099539703918800,11.5619189453125,0.023312443867325783,-0.20861391723155975,0.19225956499576569
1684099539713913900,11.571913818359375,0.012204398401081562,-0.19394496083259583,0.21460136771202087
1684099539723910000,11.581909912109374,0.004304126370698214,-0.18387360870838165,0.21979564428329468
1684099539733905200,11.5919052734375,0.005771261639893055,-0.18885213136672974,0.2223469614982605
1684099539743901000,11.60190087890625,0.006052054464817047,-0.19489973783493042,0.22262196242809296
1684099539753896000,11.61189599609375,0.012797042727470398,-0.2056349515914917,0.22372743487358093
1684099539763892000,11.62189208984375,0.007729831151664257,-0.20232024788856506,0.23267735540866852
1684099539773887000,11.631886962890626,0.012245753780007362,-0.1978442668914795,0.24026203155517578
1684099539783882800,11.6418828125,0.022484615445137024,-0.1973562240600586,0.24152979254722595
1684099539793878000,11.6518779296875,0.009776275604963303,-0.19662918150424957,0.25739771127700806
1684099539803874000,11.6618740234375,-0.006595636252313852,-0.19479496777057648,0.2760257124900818
1684099539813869000,11.671869140625,-0.014604826457798481,-0.20188163220882416,0.3012074828147888
1684099539823864800,11.68186474609375,-0.013015068136155605,-0.2178475260734558,0.3340105712413788
1684099539833859800,11.69185986328125,0.003028346225619316,-0.22048458456993103,0.34391912817955017
1684099539843856000,11.70185595703125,0.021684659644961357,-0.24548779428005219,0.3425213396549225
1684099539853851100,11.71185107421875,0.03721461817622185,-0.2882285714149475,0.34366196393966675
1684099539863847000,11.721846923828124,0.03536045923829079,-0.31359994411468506,0.35510140657424927
1684099539873842000,11.731842041015625,0.038535214960575104,-0.3229956030845642,0.36332207918167114
1684099539883838000,11.741837890625,0.03951990604400635,-0.3234076201915741,0.3558112382888794
1684099539893833000,11.7518330078125,0.03234215825796127,-0.31393715739250183,0.34066078066825867
1684099539903828700,11.761828857421875,0.057407576590776443,-0.32796919345855713,0.3709442615509033
1684099539913824000,11.771823974609376,0.0889870747923851,-0.34645897150039673,0.4094671607017517
1684099539923820000,11.781820068359375,0.12195087224245071,-0.37014129757881165,0.4623720347881317
1684099539933815000,11.79181494140625,0.15159210562705994,-0.4025745987892151,0.49917158484458923
1684099539943810800,11.801810791015624,0.16393525898456573,-0.4481094181537628,0.5140474438667297
1684099539953805800,11.811805908203125,0.16900059580802917,-0.5089698433876038,0.5111504197120667
1684099539963801900,11.8218017578125,0.19450728595256805,-0.5043883919715881,0.4843353033065796
1684099539973797000,11.831797119140624,0.22234104573726654,-0.4944119453430176,0.4270256757736206
1684099539983792000,11.841792236328125,0.257307767868042,-0.5178440809249878,0.4106432795524597
1684099539993788000,11.851787841796876,0.30297377705574036,-0.5484619140625,0.44275835156440735
1684099540003783000,11.861782958984374,0.34822455048561096,-0.5891859531402588,0.47589612007141113
1684099540013779000,11.871779052734375,0.3915078639984131,-0.6092840433120728,0.5111052393913269
1684099540023774000,11.88177392578125,0.4370172321796417,-0.6390560269355774,0.556344747543335
1684099540033770000,11.89177001953125,0.4614458680152893,-0.6548499464988708,0.6106393933296204
1684099540043765000,11.901764892578125,0.4865824282169342,-0.6393116116523743,0.6385564804077148
1684099540053761000,11.911760986328124,0.4953056275844574,-0.633511483669281,0.6404950022697449
1684099540063756000,11.921756103515625,0.48166346549987793,-0.6145516037940979,0.6063292026519775
1684099540073751800,11.931751708984375,0.44243934750556946,-0.5581781268119812,0.56601881980896
1684099540083746800,11.941746826171874,0.3808582127094269,-0.5168895721435547,0.5461950302124023
1684099540093743000,11.9517431640625,0.3283928632736206,-0.4831997752189636,0.5441675782203674
1684099540103738000,11.961738037109376,0.3101844787597656,-0.5147482752799988,0.5546600818634033
1684099540113734000,11.97173388671875,0.32891395688056946,-0.5742747187614441,0.5857000350952148
1684099540123729000,11.98172900390625,0.34612542390823364,-0.6242790818214417,0.5862799882888794
1684099540133725000,11.991724853515626,0.37518876791000366,-0.6629734635353088,0.5991864800453186
1684099540143720000,12.001719970703125,0.38737234473228455,-0.629758358001709,0.5781653523445129
1684099540153716000,12.011716064453125,0.3625572919845581,-0.5648195743560791,0.5070024728775024
1684099540163711000,12.0217109375,0.2859300971031189,-0.5519312024116516,0.4516802132129669
1684099540173707000,12.03170703125,0.2181214839220047,-0.5311489701271057,0.45534390211105347
1684099540183702000,12.041701904296875,0.17692230641841888,-0.5185918211936951,0.4662635326385498
1684099540193698000,12.051697998046874,0.15890656411647797,-0.5250177979469299,0.4410726726055145
1684099540203692800,12.06169287109375,0.1672534942626953,-0.5529237389564514,0.4353039264678955
1684099540213689000,12.071689208984376,0.2203609198331833,-0.5802773237228394,0.3756656348705292
1684099540223684000,12.08168408203125,0.2804882824420929,-0.5686895847320557,0.26810961961746216
1684099540233680100,12.09168017578125,0.313321053981781,-0.5834674835205078,0.21289697289466858
1684099540243675000,12.1016748046875,0.3159056305885315,-0.6850188970565796,0.2369857281446457
1684099540253671000,12.1116708984375,0.29373693466186523,-0.813206672668457,0.3003478944301605
1684099540263666000,12.121666015625,0.26970478892326355,-0.8442736864089966,0.3835389316082001
1684099540273662000,12.131661865234374,0.27402204275131226,-0.8068498969078064,0.5139970779418945
1684099540283657000,12.141656982421875,0.2987001836299896,-0.6384674310684204,0.5876361131668091
1684099540293653000,12.151653076171876,0.2943427264690399,-0.46541014313697815,0.5275450348854065
1684099540303648000,12.16164794921875,0.2636374831199646,-0.4232064485549927,0.4350755512714386
1684099540313644000,12.17164404296875,0.22682489454746246,-0.5237636566162109,0.3630034923553467
1684099540323639000,12.18163916015625,0.19921550154685974,-0.6694580912590027,0.3537583649158478
1684099540333634800,12.191634765625,0.206069678068161,-0.7772676348686218,0.46256473660469055
1684099540343630000,12.201630126953125,0.245710089802742,-0.8618177175521851,0.636323869228363
1684099540353626000,12.211626220703126,0.33183032274246216,-0.864141047000885,0.7465894222259521
1684099540363621000,12.22162109375,0.4388183057308197,-0.6911540031433105,0.7756015658378601
1684099540373617000,12.231616943359375,0.5217187404632568,-0.4020169973373413,0.7674815654754639
1684099540383612000,12.24161181640625,0.525003969669342,-0.22337424755096436,0.6735917329788208
1684099540393608000,12.25160791015625,0.4626944661140442,-0.23128490149974823,0.5385342836380005
1684099540403603200,12.261603271484375,0.3834255635738373,-0.33541250228881836,0.4928768277168274
1684099540413599000,12.271598876953124,0.33128300309181213,-0.44812437891960144,0.5432825088500977
1684099540423594000,12.281593994140625,0.279782772064209,-0.48912593722343445,0.6234725713729858
1684099540433590000,12.291590087890626,0.26736924052238464,-0.5107364058494568,0.6413754224777222
1684099540443585000,12.3015849609375,0.3610553741455078,-0.5137031078338623,0.6640646457672119
1684099540453580800,12.311580810546875,0.4862902760505676,-0.42937278747558594,0.672035276889801
1684099540463576000,12.321576171875,0.5241544246673584,-0.4580329358577728,0.5396262407302856
1684099540473571000,12.331571044921875,0.4712323844432831,-0.6141666173934937,0.333013653755188
1684099540483567000,12.341567138671875,0.371365487575531,-0.7053372859954834,0.23741671442985535
1684099540493561900,12.351561767578126,0.2431097775697708,-0.677349865436554,0.32595083117485046
1684099540503558000,12.361557861328125,0.11967165768146515,-0.5384814143180847,0.452472448348999
