time,seconds_elapsed,z,y,x
1684109829320818000,0.03281787109375,0.5447685718536377,2.0187370777130127,0.6107981204986572
1684109829330814000,0.04281396484375,0.49278032779693604,2.6479971408843994,0.37447047233581543
1684109829340809700,0.052809814453125,0.5280680060386658,3.4431722164154053,0.27173689007759094
1684109829350806000,0.062805908203125,0.5013314485549927,4.054677486419678,0.22560787200927734
1684109829360802000,0.072802001953125,0.2915271520614624,4.0490312576293945,0.11103948950767517
1684109829370796800,0.082796875,-0.06478770822286606,3.5060012340545654,0.004231290426105261
1684109829380792800,0.092792724609375,-0.4020128846168518,2.9160847663879395,-0.023472242057323456
1684109829390788900,0.102788818359375,-0.2551577389240265,2.306455135345459,-0.31425371766090393
1684109829400785000,0.112784912109375,0.2850056290626526,2.2763214111328125,-0.7304999232292175
1684109829410781000,0.122781005859375,0.4226374328136444,2.334496021270752,-0.868597686290741
1684109829420777000,0.13277685546875,-0.06801775842905045,2.0599944591522217,-1.0650897026062012
1684109829430773000,0.14277294921875,-0.978746771812439,1.1652957201004028,-1.4008549451828003
1684109829440769000,0.15276904296875,-2.1137447357177734,0.43266206979751587,-1.8801003694534302
1684109829450764000,0.162763916015625,-2.673316478729248,-0.19211450219154358,-2.673861026763916
1684109829460759800,0.172759765625,-2.9416537284851074,-1.0475308895111084,-3.3475518226623535
1684109829470755800,0.182755859375,-2.7953500747680664,-2.119267225265503,-3.876943588256836
1684109829480751900,0.192751953125,-2.3212924003601074,-2.419113874435425,-4.2508649826049805
1684109829490748000,0.202747802734375,-1.722705364227295,-2.044971227645874,-4.290047645568848
1684109829500744000,0.212743896484375,-1.1716374158859253,-1.5036975145339966,-3.952451229095459
1684109829510739700,0.22273974609375,-0.7947329878807068,-0.8503088355064392,-3.4239659309387207
1684109829520736000,0.232736083984375,-0.6634628176689148,0.02865786664187908,-2.9113070964813232
1684109829530731000,0.24273095703125,-0.6831949949264526,1.0400586128234863,-2.5006768703460693
1684109829540726800,0.252726806640625,-0.7026848196983337,2.0028202533721924,-2.2512238025665283
1684109829550722800,0.262722900390625,-0.7803899049758911,2.7137765884399414,-2.1490838527679443
1684109829560719000,0.272718994140625,-0.9084932804107666,3.0014092922210693,-2.1967580318450928
1684109829570715000,0.28271484375,-0.975221574306488,3.0499000549316406,-2.3967227935791016
1684109829580711000,0.2927109375,-0.9030224680900574,3.3386733531951904,-2.64544939994812
1684109829590707000,0.30270703125,-0.4919067919254303,4.2880377769470215,-2.81730055809021
1684109829600703000,0.312702880859375,-0.021461239084601402,5.865191459655762,-2.9066355228424072
1684109829610699000,0.322698974609375,-0.15804970264434814,7.251163959503174,-2.8931002616882324
1684109829620694000,0.332694091796875,-0.7702792882919312,7.436032295227051,-2.6681480407714844
1684109829630689800,0.342689697265625,-1.4443800449371338,6.628035545349121,-2.2931625843048096
1684109829640685800,0.352685791015625,-1.660607099533081,5.287802696228027,-2.141251564025879
1684109829650681900,0.362681884765625,-1.4608405828475952,4.4715681076049805,-2.0878758430480957
1684109829660678000,0.372677978515625,-0.7678545713424683,4.985119819641113,-1.6099461317062378
1684109829670674000,0.382673828125,-0.43682557344436646,4.21071195602417,-1.793315052986145
1684109829680670000,0.392669921875,-0.4167109727859497,5.085381031036377,-1.703723669052124
1684109829690666000,0.402666015625,-0.6496362090110779,6.853736400604248,-1.5179425477981567
1684109829700661000,0.412660888671875,-0.8516896963119507,7.504613399505615,-1.4366791248321533
1684109829710656800,0.42265673828125,-0.5235183238983154,6.400885105133057,-1.7556910514831543
1684109829720652800,0.43265283203125,-0.3736012876033783,4.697721004486084,-2.06251859664917
1684109829730649000,0.442649169921875,-0.8579044938087463,3.5832762718200684,-1.833341360092163
1684109829740645000,0.45264501953125,-1.432774543762207,2.969640016555786,-1.3399407863616943
1684109829750641400,0.462641357421875,-1.7942641973495483,2.797180652618408,-1.1365078687667847
1684109829760637200,0.47263720703125,-1.8007234334945679,2.6813104152679443,-1.2639970779418945
1684109829770633200,0.48263330078125,-1.4810478687286377,2.793166160583496,-1.5291255712509155
1684109829780629500,0.49262939453125,-1.8055849075317383,2.4438974857330322,-1.9552737474441528
1684109829790624300,0.502624267578125,-2.1489810943603516,2.230466842651367,-2.2800378799438477
1684109829800620300,0.512620361328125,-2.6082284450531006,1.532840371131897,-2.537013053894043
1684109829810616300,0.5226162109375,-3.092669725418091,0.899219274520874,-2.561980724334717
1684109829820612000,0.532612060546875,-3.125025987625122,0.7465229630470276,-2.244020462036133
1684109829830608400,0.5426083984375,-2.656724691390991,0.9910869002342224,-1.5982873439788818
1684109829840604400,0.5526044921875,-2.4718575477600098,1.2000459432601929,-0.77998948097229
1684109829850600200,0.56260009765625,-2.615617513656616,1.2176401615142822,-0.1525421142578125
1684109829860596200,0.57259619140625,-2.5651419162750244,1.2862845659255981,0.004544163588434458
1684109829870592300,0.58259228515625,-2.4587440490722656,1.4262197017669678,-0.29021787643432617
1684109829880587300,0.592587158203125,-2.225287437438965,1.3882606029510498,-0.9362581968307495
1684109829890583300,0.602583251953125,-2.134648323059082,0.8935046195983887,-1.4591704607009888
1684109829900579300,0.612579345703125,-2.383342981338501,0.5130353569984436,-1.2392299175262451
1684109829910575400,0.622575439453125,-2.721763849258423,0.3749372959136963,-0.6931240558624268
1684109829920571400,0.6325712890625,-3.149205207824707,0.5220168232917786,-0.02381013333797455
1684109829930567200,0.642567138671875,-3.597022533416748,0.6871307492256165,0.9935423731803894
1684109829940563200,0.652563232421875,-4.162722110748291,1.583851933479309,2.3983352184295654
1684109829950559500,0.6625595703125,-4.950693130493164,3.51646089553833,3.6086034774780273
1684109829960555300,0.67255517578125,-5.780647277832031,4.993484020233154,4.691235542297363
1684109829970550300,0.68255029296875,-6.482647895812988,5.552018165588379,5.579577922821045
1684109829980546300,0.69254638671875,-6.794697284698486,5.265324592590332,6.138632774353027
1684109829990542000,0.7025419921875,-6.63223123550415,4.599603652954102,6.202089786529541
1684109830000538400,0.712538330078125,-6.509654521942139,3.81404185295105,5.618716716766357
1684109830010534400,0.722534423828125,-6.579344272613525,3.416969060897827,4.522261619567871
1684109830020530200,0.7325302734375,-6.299616813659668,3.585482358932495,3.1437056064605713
1684109830030526500,0.7425263671875,-5.845488548278809,3.888390302658081,1.7248694896697998
1684109830040522200,0.752522216796875,-5.399672031402588,4.139070510864258,0.5207425355911255
1684109830050518300,0.762518310546875,-5.039675235748291,4.820303440093994,-0.03132827952504158
1684109830060513300,0.77251318359375,-4.5385613441467285,5.5370378494262695,0.29602617025375366
1684109830070509300,0.78250927734375,-3.945699453353882,5.819194316864014,1.3631998300552368
1684109830080505300,0.79250537109375,-3.3799936771392822,5.7611565589904785,2.8533740043640137
1684109830090501400,0.80250146484375,-2.938671350479126,4.800537109375,5.002583980560303
1684109830100497200,0.8124970703125,-2.1949880123138428,3.6985950469970703,6.533993244171143
1684109830110493200,0.8224931640625,-0.8858514428138733,2.9429409503936768,7.010216236114502
1684109830120489500,0.832489501953125,0.2896217703819275,1.9950611591339111,6.391835689544678
1684109830130485200,0.8424853515625,1.3764382600784302,-0.2118702083826065,4.5868330001831055
1684109830140480300,0.852480224609375,2.379074811935425,-3.7217016220092773,-0.7926591038703918
1684109830150476300,0.862476318359375,2.869532346725464,-5.981451511383057,-4.402092456817627
1684109830160472300,0.872472412109375,3.6192235946655273,-6.724402904510498,-4.705799579620361
1684109830170468400,0.88246826171875,4.689340114593506,-5.8400959968566895,-3.661407947540283
1684109830180464400,0.89246435546875,5.27570104598999,-3.7625718116760254,-3.2050247192382812
1684109830190460200,0.902460205078125,5.086766242980957,-2.079068183898926,-3.1811728477478027
1684109830200456400,0.91245654296875,4.005067825317383,-1.146321415901184,-3.10845685005188
1684109830210452200,0.9224521484375,2.768179178237915,-0.6378474235534668,-2.659188747406006
1684109830220448300,0.9324482421875,2.132826566696167,0.7586095929145813,-1.9370107650756836
1684109830230443300,0.942443359375,2.619398593902588,2.3081421852111816,-0.5501781105995178
1684109830240439300,0.952439208984375,2.948322296142578,2.5293209552764893,0.47581398487091064
1684109830250435300,0.962435302734375,2.639470338821411,2.651418685913086,1.1238347291946411
1684109830260431400,0.972431396484375,1.3972605466842651,2.9413647651672363,1.1359196901321411
1684109830270427100,0.98242724609375,1.204302430152893,2.653028964996338,0.46593019366264343
1684109830280423400,0.99242333984375,1.8470600843429565,1.7891265153884888,0.5079568028450012
1684109830290419500,1.00241943359375,1.0434352159500122,1.5920212268829346,0.23215974867343903
1684109830300415200,1.012415283203125,0.8715634942054749,1.0549548864364624,0.35946550965309143
1684109830310411300,1.022411376953125,0.9014127254486084,0.7156122326850891,0.45643866062164307
1684109830320407300,1.0324072265625,0.8883384466171265,0.39147546887397766,0.6496227383613586
1684109830330402300,1.04240234375,0.9281919002532959,0.28963029384613037,0.9374771118164062
1684109830340398300,1.0523984375,1.020761489868164,0.5565069913864136,1.3518074750900269
1684109830350394400,1.062394287109375,0.6034035682678223,1.407555103302002,1.806237816810608
1684109830360390100,1.07239013671875,-0.07299408316612244,1.80653715133667,1.8616273403167725
1684109830370386400,1.082386474609375,-0.7487055659294128,1.6103534698486328,1.4352842569351196
1684109830380382200,1.09238232421875,-1.092308759689331,1.0082670450210571,0.9665838479995728
1684109830390378200,1.102378173828125,-1.4345184564590454,0.11956577003002167,0.3082613945007324
1684109830400374300,1.112374267578125,-1.7717446088790894,-0.9214372634887695,-0.3085157871246338
1684109830410369300,1.122369384765625,-1.944059133529663,-1.6995432376861572,-1.0637801885604858
1684109830420365300,1.132365234375,-2.163571834564209,-1.758663296699524,-1.6965289115905762
1684109830430361300,1.142361328125,-2.1864421367645264,-1.1365900039672852,-1.8318312168121338
1684109830440357000,1.152357177734375,-2.556863307952881,0.5942263007164001,-1.8300615549087524
1684109830450353400,1.162353515625,-2.329178810119629,0.25547194480895996,-1.8538386821746826
1684109830460349400,1.172349365234375,-1.6200860738754272,-1.0872502326965332,-1.5209333896636963
1684109830470345200,1.18234521484375,-1.5850332975387573,-0.662011444568634,-0.8942555785179138
1684109830480341200,1.19234130859375,-1.396999478340149,0.21022175252437592,-0.5169373154640198
1684109830490337300,1.202337158203125,-0.9743137359619141,0.988542377948761,-0.027763430029153824
1684109830500333300,1.212333251953125,-0.4359448254108429,1.6493182182312012,0.6490762829780579
1684109830510328300,1.222328369140625,-0.4572547674179077,0.5261133313179016,0.5644651055335999
1684109830520324400,1.232324462890625,-1.0853126049041748,-1.0080950260162354,-0.324615478515625
1684109830530320100,1.242320068359375,-2.032388925552368,-0.8707576394081116,-1.2955552339553833
1684109830540316400,1.25231640625,-2.8350417613983154,-1.1490918397903442,-2.0876007080078125
1684109830550312200,1.262312255859375,-3.868824005126953,-0.8665052056312561,-2.41550874710083
1684109830560308200,1.27230810546875,-4.028572082519531,0.21621090173721313,-1.5472970008850098
1684109830570304500,1.282304443359375,-3.316152572631836,1.077347993850708,-0.20809727907180786
1684109830580300300,1.29230029296875,-1.9021145105361938,0.6741452217102051,1.050071358680725
1684109830590296300,1.30229638671875,-0.5613751411437988,0.673024594783783,1.526606798171997
1684109830600291300,1.312291259765625,0.08589790761470795,1.1015162467956543,1.4922351837158203
1684109830610287000,1.322287109375,0.085060253739357,0.7117828130722046,1.3866631984710693
1684109830620283400,1.332283447265625,-0.8495026230812073,-0.10566838830709457,0.7331010699272156
1684109830630279400,1.342279541015625,-1.2806569337844849,0.2562926709651947,0.03704699128866196
1684109830640275200,1.352275146484375,-1.4175548553466797,-0.41501832008361816,-0.3417655825614929
1684109830650271200,1.362271240234375,-1.4771697521209717,-0.25098830461502075,-0.33968988060951233
1684109830660267300,1.372267333984375,-1.394758939743042,0.10221236199140549,-0.25449374318122864
1684109830670263300,1.38226318359375,-0.6976243257522583,0.04509352892637253,-0.21042782068252563
1684109830680259300,1.39225927734375,-0.2979607880115509,1.3948147296905518,-0.8775981068611145
1684109830690254300,1.40225439453125,-1.0551422834396362,2.380631446838379,-0.7613986134529114
1684109830700250400,1.41225048828125,-1.3056777715682983,1.3956787586212158,0.726344883441925
1684109830710246400,1.422246337890625,-0.6923415064811707,1.181359887123108,1.3386238813400269
1684109830720242200,1.4322421875,-0.4505658745765686,1.0841177701950073,1.2019528150558472
1684109830730238200,1.44223828125,-0.4612768888473511,0.8710941076278687,0.9652426242828369
1684109830740234200,1.452234130859375,-0.4366879165172577,0.7076125144958496,0.5722380876541138
1684109830750230000,1.46222998046875,-0.3705524802207947,0.7465341687202454,0.17910227179527283
1684109830760226300,1.472226318359375,-0.5571790933609009,1.0161936283111572,-0.22218948602676392
1684109830770222000,1.48222216796875,-0.7286146879196167,1.1280713081359863,-0.525921106338501
1684109830780217000,1.492217041015625,-0.8461104035377502,0.9647426605224609,-0.5774716138839722
1684109830790213000,1.502213134765625,-0.8984621167182922,0.8633620738983154,-0.32042115926742554
1684109830800209200,1.512209228515625,-0.8499883413314819,0.7352190017700195,0.5121487975120544
1684109830810205200,1.522205078125,-0.6289643049240112,0.9563325047492981,1.4923230409622192
1684109830820201200,1.532201171875,-0.05676501989364624,0.7998598217964172,1.6588808298110962
1684109830830197000,1.542197021484375,0.8887993097305298,0.83939528465271,0.9933246970176697
1684109830840193300,1.552193359375,1.582964539527893,0.575258731842041,1.9019086360931396
1684109830850189300,1.562189208984375,1.9483929872512817,1.3324514627456665,2.3948822021484375
1684109830860185000,1.57218505859375,2.7661824226379395,1.939771294593811,1.9262607097625732
1684109830870181000,1.58218115234375,3.9376142024993896,0.6662473082542419,0.940022885799408
1684109830880176000,1.592176025390625,3.680487871170044,0.4677203595638275,0.893920361995697
1684109830890172200,1.602172119140625,2.7536871433258057,0.45263373851776123,0.9062767028808594
1684109830900168200,1.612168212890625,0.4815319776535034,1.0226346254348755,0.2291933000087738
1684109830910164200,1.622164306640625,-2.291159152984619,0.1963861584663391,-0.10219861567020416
1684109830920160000,1.632159912109375,-4.8521246910095215,-0.6611847281455994,-0.21120871603488922
1684109830930156300,1.64215625,-5.383823394775391,0.5556951761245728,0.6842566132545471
1684109830940152000,1.652152099609375,-3.383713960647583,2.5362675189971924,2.8781936168670654
1684109830950148000,1.662148193359375,-1.3870728015899658,2.0410447120666504,3.7232680320739746
1684109830960144100,1.67214404296875,-0.8198670744895935,1.9881882667541504,2.537442207336426
1684109830970140200,1.68214013671875,-1.3095422983169556,1.7867401838302612,1.7996935844421387
1684109830980135200,1.69213525390625,-2.4424796104431152,0.931867241859436,1.9003599882125854
1684109830990131200,1.702131103515625,-3.109774112701416,2.171902656555176,2.215069532394409
1684109831000127000,1.712126953125,-3.0287084579467773,3.5803020000457764,2.796851873397827
1684109831010123300,1.722123291015625,-2.8592519760131836,3.5867340564727783,2.7542777061462402
1684109831020119300,1.732119384765625,-2.7042012214660645,2.2170374393463135,2.2642483711242676
1684109831030115000,1.742114990234375,-2.264314651489258,1.0044028759002686,2.1942145824432373
1684109831040111000,1.752111083984375,-1.7479653358459473,0.4108934998512268,1.971489667892456
1684109831050107100,1.762107177734375,-1.5029215812683105,0.5308887362480164,1.6821800470352173
1684109831060103200,1.772103271484375,-1.1609554290771484,0.9005538821220398,1.347169041633606
1684109831070099200,1.78209912109375,-1.1248940229415894,1.365207552909851,0.7648866176605225
1684109831080094200,1.79209423828125,-1.5677074193954468,1.8327991962432861,0.6012620329856873
1684109831090090200,1.80209033203125,-1.578847050666809,1.984817385673523,0.8313379883766174
1684109831100086300,1.812086181640625,-1.1838185787200928,1.2100929021835327,0.9533770680427551
1684109831110082000,1.82208203125,-0.8478147387504578,-0.10104420781135559,0.21817244589328766
1684109831120078000,1.832078125,-0.9174084663391113,-0.5139644145965576,-0.59651780128479
1684109831130074400,1.842074462890625,-1.0461955070495605,-0.20393066108226776,-1.441762924194336
1684109831140070100,1.852070068359375,-1.121639609336853,0.41402551531791687,-1.841764211654663
1684109831150066200,1.862066162109375,-1.307424783706665,1.303357481956482,-1.524915099143982
1684109831160062000,1.87206201171875,-1.5233460664749146,2.1420998573303223,-0.9075624346733093
1684109831170058200,1.882058349609375,-1.8423560857772827,2.5506536960601807,-0.22499985992908478
1684109831180053200,1.89205322265625,-2.115309000015259,2.430819272994995,0.3554656505584717
1684109831190049300,1.90204931640625,-2.3508574962615967,1.901172399520874,0.8142428994178772
1684109831200045000,1.912045166015625,-2.55865740776062,1.1555533409118652,1.2141660451889038
1684109831210041000,1.922041015625,-2.6292107105255127,0.34052911400794983,1.5674676895141602
1684109831220037000,1.932037109375,-1.8718916177749634,-1.0185658931732178,1.5594052076339722
1684109831230033200,1.942033203125,0.3232193887233734,-2.177051544189453,0.8018407821655273
1684109831240029200,1.952029296875,1.8837854862213135,-1.4060677289962769,0.2401563972234726
1684109831250025200,1.962025146484375,1.4699946641921997,0.29888108372688293,0.20694661140441895
1684109831260021200,1.972021240234375,0.6885073184967041,0.978620171546936,-0.13121625781059265
1684109831270017000,1.98201708984375,0.18598361313343048,1.0091617107391357,-0.48343977332115173
1684109831280012000,1.992011962890625,-0.08681463450193405,0.8418728709220886,-0.5408687591552734
1684109831290008000,2.002008056640625,-0.33229514956474304,0.5483756065368652,-0.4757311940193176
1684109831300004400,2.01200439453125,-0.2784835994243622,0.037689197808504105,-0.720769464969635
1684109831310000000,2.022000244140625,0.11080243438482285,-2.2205662727355957,-1.622819185256958
1684109831319996200,2.03199609375,0.4213951826095581,-3.4366848468780518,-1.8336507081985474
1684109831329992000,2.041991943359375,0.4576379358768463,-2.338834762573242,-0.9009304046630859
1684109831339988200,2.05198828125,0.028913766145706177,-0.22008016705513,-0.047777943313121796
1684109831349984300,2.061984375,-0.22311587631702423,1.637702465057373,0.06694334000349045
1684109831359980000,2.07197998046875,-0.14343222975730896,1.8733775615692139,-0.01831696182489395
1684109831369976000,2.08197607421875,-0.01798136904835701,0.9581478834152222,0.049390263855457306
1684109831379971300,2.091971435546875,0.14105914533138275,-0.15378601849079132,0.3645053207874298
1684109831389967000,2.101967041015625,0.237748384475708,-0.8025217056274414,0.7457587122917175
1684109831399963100,2.111963134765625,0.20226123929023743,-0.9533037543296814,0.9868602752685547
1684109831409959200,2.121959228515625,0.09728346765041351,-0.7975950837135315,0.9107208251953125
1684109831419955200,2.131955078125,-0.018969107419252396,-0.2938653528690338,0.547171950340271
1684109831429951200,2.141951171875,-0.06433993577957153,0.31416958570480347,0.10216901451349258
1684109831439947000,2.151947021484375,-0.08335570245981216,0.5189794301986694,-0.09270380437374115
1684109831449943000,2.161943115234375,-0.09115566313266754,0.3989731967449188,-0.03020446002483368
1684109831459939300,2.171939208984375,-0.08622535318136215,0.0742928683757782,0.14104558527469635
1684109831469935000,2.18193505859375,-0.07494328171014786,-0.18688800930976868,0.23267701268196106
1684109831479930000,2.19193017578125,-0.06379315257072449,-0.24332624673843384,0.1760701835155487
1684109831489926100,2.201926025390625,-0.05131092667579651,-0.20683737099170685,0.0811953917145729
1684109831499922200,2.211922119140625,-0.047865863889455795,-0.13417088985443115,0.02994338795542717
1684109831509918200,2.221918212890625,-0.051656242460012436,0.009369075298309326,0.00440441258251667
1684109831519914200,2.231914306640625,-0.04603191465139389,0.09958658367395401,-0.0016236522933468223
1684109831529910000,2.241909912109375,-0.02229144237935543,0.09938231110572815,0.032800983637571335
1684109831539906300,2.25190625,0.024267537519335747,0.07207532227039337,0.1420353353023529
1684109831549902000,2.261902099609375,0.03948883339762688,0.010861501097679138,0.2829338610172272
1684109831559898000,2.271898193359375,-0.0001824117498472333,0.041896648705005646,0.32481953501701355
1684109831569893000,2.28189306640625,-0.043687187135219574,0.3635531961917877,0.20856213569641113
1684109831579889200,2.29188916015625,-0.1239122524857521,0.8089340925216675,0.08536537736654282
1684109831589885200,2.30188525390625,-0.2025652527809143,0.9868242144584656,0.1518772840499878
1684109831599881200,2.311881103515625,-0.22946476936340332,0.8074706792831421,0.4070299565792084
1684109831609877000,2.321876953125,-0.17295917868614197,0.6349503397941589,0.7545713186264038
1684109831619873000,2.331873046875,-0.003775219200178981,0.6622985601425171,1.0839321613311768
1684109831629869300,2.341869384765625,0.22565525770187378,0.7723886966705322,1.0610880851745605
1684109831639865000,2.351864990234375,0.3323068618774414,0.8645164966583252,0.6093166470527649
1684109831649861000,2.361861083984375,0.24148426949977875,1.015755534172058,0.18663103878498077
1684109831659856100,2.371856201171875,0.04378477856516838,1.0923616886138916,0.021664442494511604
1684109831669852200,2.38185205078125,-0.1721062958240509,1.1885946989059448,-0.08404456079006195
1684109831679848200,2.39184814453125,-0.35915127396583557,1.4067094326019287,-0.12099219113588333
1684109831689844200,2.40184423828125,-0.39634692668914795,1.6916882991790771,0.07984363287687302
1684109831699840000,2.411840087890625,-0.34527069330215454,1.9930707216262817,0.3658578097820282
1684109831709836300,2.421836181640625,-0.24945269525051117,2.167407274246216,0.572361946105957
1684109831719832000,2.43183203125,-0.13778795301914215,1.9787216186523438,0.7169963121414185
1684109831729828000,2.441828125,-0.02783680334687233,1.6679500341415405,0.7701455354690552
1684109831739824000,2.45182421875,-0.06825292855501175,1.3497333526611328,0.7859959006309509
1684109831749819400,2.4618193359375,-0.1583869755268097,1.141913652420044,0.7617106437683105
1684109831759814400,2.471814453125,-0.21211811900138855,1.0434882640838623,0.5777360200881958
1684109831769810400,2.481810546875,-0.2579636573791504,1.0846494436264038,0.3190760016441345
1684109831779806500,2.491806396484375,-0.27740979194641113,1.1608901023864746,0.19912321865558624
1684109831789802200,2.50180224609375,-0.21578900516033173,1.0532156229019165,0.23569577932357788
1684109831799798500,2.511798583984375,-0.2927609980106354,0.9025930166244507,0.10674897581338882
1684109831809794300,2.521794189453125,-0.4115281403064728,0.8339303731918335,-0.045632656663656235
1684109831819790300,2.531790283203125,-0.34513500332832336,0.814326822757721,0.027014384046196938
1684109831829786400,2.541786376953125,-0.2602035105228424,0.617119312286377,0.17354579269886017
1684109831839782400,2.551782470703125,-0.20747637748718262,0.25143319368362427,0.2878532111644745
1684109831849777400,2.56177734375,-0.0821005180478096,-0.12668921053409576,0.3987429141998291
1684109831859773400,2.5717734375,0.08442987501621246,-0.31363141536712646,0.5065010190010071
1684109831869769200,2.581769287109375,0.21431611478328705,-0.2509981095790863,0.4799942970275879
1684109831879765500,2.591765625,0.199468731880188,-0.19736739993095398,0.2512018084526062
1684109831889761500,2.601761474609375,0.09292455017566681,-0.23064880073070526,-0.07608696073293686
1684109831899757300,2.61175732421875,-0.05455891042947769,-0.3459247946739197,-0.4271696209907532
1684109831909753300,2.62175341796875,-0.19276383519172668,-0.5924922823905945,-0.7634339332580566
1684109831919749400,2.631749267578125,-0.2617016136646271,-0.9892553091049194,-0.8348822593688965
1684109831929745400,2.641745361328125,-0.22109147906303406,-1.3415220975875854,-0.48426347970962524
1684109831939741400,2.651741455078125,-0.05349023640155792,-1.2975245714187622,-0.03961200639605522
1684109831949736400,2.661736328125,0.13900157809257507,-0.9911677241325378,0.2868560552597046
1684109831959732200,2.671732177734375,0.30801618099212646,-0.724179208278656,0.5691996216773987
1684109831969728500,2.681728515625,0.38984405994415283,-0.6139644384384155,0.7447234392166138
1684109831979724300,2.691724365234375,0.3042948246002197,-0.5444737672805786,0.6840084195137024
1684109831989720300,2.70172021484375,0.14124713838100433,-0.5933306217193604,0.38988250494003296
1684109831999716600,2.711716552734375,0.09077757596969604,-0.89447021484375,0.16225332021713257
1684109832009712400,2.72171240234375,0.09887726604938507,-1.2699368000030518,0.1546953022480011
1684109832019708400,2.73170849609375,0.0159983579069376,-1.3703933954238892,0.18493176996707916
1684109832029704400,2.741704345703125,-0.08476926386356354,-0.880133867263794,-0.02496286854147911
1684109832039699200,2.75169921875,-0.06006977707147598,0.12867236137390137,-0.08487759530544281
1684109832049695500,2.761695556640625,-0.004830756224691868,0.8962219953536987,0.11662355810403824
1684109832059691500,2.77169140625,-0.08267788589000702,0.7541125416755676,0.35487261414527893
1684109832069687300,2.781687255859375,-0.06235707923769951,0.23671583831310272,0.47387972474098206
1684109832079683300,2.791683349609375,0.08953231573104858,0.31903892755508423,0.6344766020774841
1684109832089679400,2.801679443359375,0.3143286108970642,0.8369808197021484,0.8429103493690491
1684109832099675400,2.81167529296875,0.4377773106098175,1.060707926750183,1.0204410552978516
1684109832109671400,2.82167138671875,0.509860634803772,0.9722086191177368,1.0618160963058472
1684109832119667200,2.831667236328125,0.4810933768749237,0.7279642224311829,0.7646308541297913
1684109832129662500,2.841662353515625,0.4679155945777893,0.5248424410820007,0.2576621174812317
1684109832139658500,2.851658447265625,0.603769838809967,0.7166904211044312,-0.06055101379752159
1684109832149654300,2.861654296875,0.8613948225975037,1.2523876428604126,-0.06303620338439941
1684109832159650300,2.871650390625,1.060136079788208,1.906522512435913,0.1231861338019371
1684109832169646600,2.881646484375,1.0547157526016235,2.3574793338775635,0.24937455356121063
1684109832179642400,2.891642333984375,0.9092323184013367,2.0046050548553467,-0.05707806721329689
1684109832189638400,2.901638427734375,0.6687260866165161,1.0168960094451904,-0.5461449027061462
1684109832199634400,2.911634521484375,0.32397663593292236,-0.3300643563270569,-0.6399952173233032
1684109832209630500,2.92163037109375,-0.098606638610363,-1.8829811811447144,-0.3133620023727417
1684109832219626500,2.93162646484375,-0.4102865159511566,-2.721432685852051,0.1561490297317505
1684109832229621500,2.94162158203125,-0.37133097648620605,-1.6901532411575317,0.6568978428840637
1684109832239617300,2.9516171875,-0.10991081595420837,-0.10202833265066147,0.743776261806488
1684109832249613600,2.961613525390625,0.06824696063995361,0.8262998461723328,0.6079690456390381
1684109832259609300,2.971609375,0.004419250413775444,1.1846510171890259,0.4610075354576111
1684109832269605400,2.98160546875,-0.000947831547819078,1.269118309020996,0.2168484777212143
1684109832279601400,2.991601318359375,-0.012144293636083603,1.3179142475128174,-0.047420717775821686
1684109832289597400,3.001597412109375,-0.06008052080869675,1.3510310649871826,-0.24284590780735016
1684109832299593500,3.011593505859375,0.015913845971226692,1.2422438859939575,-0.26311710476875305
1684109832309589500,3.021589599609375,0.2336374670267105,0.9468598365783691,-0.07507370412349701
1684109832319584300,3.031584228515625,0.38235560059547424,0.37863826751708984,0.16221527755260468
1684109832329580300,3.041580322265625,0.3799583911895752,-0.35083505511283875,0.29739800095558167
1684109832339576600,3.05157666015625,0.30707991123199463,-0.822929859161377,0.3880669176578522
1684109832349572400,3.061572265625,0.21736329793930054,-1.0477747917175293,0.3989919424057007
1684109832359568400,3.071568359375,0.15807093679904938,-0.9156460165977478,0.34685444831848145
1684109832369564400,3.081564453125,0.1500210464000702,-0.42177584767341614,0.23210977017879486
1684109832379560400,3.091560546875,0.14557090401649475,0.18541504442691803,0.08006937056779861
1684109832389556500,3.101556396484375,0.09798818081617355,0.6638966798782349,0.01411573775112629
1684109832399552300,3.11155224609375,0.026635970920324326,0.887451708316803,0.03751027584075928
1684109832409547300,3.12154736328125,-0.04221013933420181,0.9412030577659607,0.1250155121088028
1684109832419543600,3.13154345703125,-0.06392821669578552,0.8522252440452576,0.22211596369743347
1684109832429539300,3.141539306640625,-0.02379961684346199,0.6717613935470581,0.30671101808547974
1684109832439535400,3.151535400390625,-0.002996867522597313,0.5527297854423523,0.3368507921695709
1684109832449531400,3.161531494140625,-0.024411750957369804,0.5355512499809265,0.2612604796886444
1684109832459527400,3.17152734375,-0.0660896897315979,0.6082475185394287,0.15012489259243011
1684109832469523500,3.1815234375,-0.09902295470237732,0.6830471158027649,0.05981733649969101
1684109832479519500,3.19151953125,-0.10374979674816132,0.6893057823181152,0.04208547621965408
1684109832489515300,3.201515380859375,-0.07481075823307037,0.5137844085693359,0.06539623439311981
1684109832499511600,3.211511474609375,-0.007120393216609955,0.2207450568675995,0.13274970650672913
1684109832509506600,3.221506591796875,0.04837829992175102,-0.057415448129177094,0.1619836837053299
1684109832519502300,3.23150244140625,0.06326483190059662,-0.2931060194969177,0.07247856259346008
1684109832529498400,3.241498291015625,0.06531573086977005,-0.46304604411125183,-0.04816529527306557
1684109832539494400,3.251494384765625,0.0547855980694294,-0.5265970230102539,-0.11905385553836823
1684109832549490400,3.261490478515625,0.0567278191447258,-0.42622265219688416,-0.12280824780464172
1684109832559486500,3.271486572265625,0.027868742123246193,-0.24305392801761627,-0.07424523681402206
1684109832569482200,3.281482177734375,-0.023098023608326912,-0.038326866924762726,-0.03345794230699539
1684109832579478500,3.291478515625,-0.053433291614055634,0.1506289392709732,0.009900981560349464
1684109832589474600,3.301474609375,-0.054558392614126205,0.21851114928722382,0.1013781949877739
1684109832599469300,3.31146923828125,-0.07117544859647751,0.14039798080921173,0.2160208821296692
1684109832609465300,3.32146533203125,-0.12658947706222534,0.028573673218488693,0.274541437625885
1684109832619461400,3.33146142578125,-0.19887113571166992,-0.02916019596159458,0.254401832818985
1684109832629457400,3.34145751953125,-0.2654550075531006,-0.011907371692359447,0.1808675229549408
1684109832639453400,3.351453369140625,-0.292431503534317,0.039708949625492096,0.0761760026216507
1684109832649449500,3.361449462890625,-0.280068039894104,0.08468974381685257,-0.0391513966023922
1684109832659445500,3.371445556640625,-0.2041919231414795,0.07028337568044662,-0.13996216654777527
1684109832669441500,3.381441650390625,-0.10498416423797607,0.007992113009095192,-0.16079391539096832
1684109832679437300,3.391437255859375,-0.015443899668753147,-0.05188080668449402,-0.13358652591705322
1684109832689432300,3.401432373046875,0.05179676041007042,-0.05501884967088699,-0.1161879226565361
1684109832699428400,3.411428466796875,0.09505155682563782,-0.004633973352611065,-0.10463060438632965
1684109832709424400,3.42142431640625,0.10940542072057724,0.05083112046122551,-0.06491756439208984
1684109832719420400,3.43142041015625,0.07309827953577042,0.13310495018959045,0.016020430251955986
1684109832729416400,3.44141650390625,0.01992059499025345,0.20145170390605927,0.11032027006149292
1684109832739412200,3.451412109375,-0.04495108127593994,0.18051420152187347,0.1844373643398285
1684109832749409000,3.461408935546875,-0.09161022305488586,0.10579798370599747,0.23373501002788544
1684109832759404800,3.47140478515625,-0.11696537584066391,0.03426627814769745,0.23003295063972473
1684109832769400800,3.48140087890625,-0.13618667423725128,0.04962252825498581,0.19852684438228607
1684109832779397000,3.491397216796875,-0.15514226257801056,0.1341925412416458,0.13836896419525146
1684109832789392000,3.501391845703125,-0.1590929627418518,0.28017327189445496,0.05491742491722107
1684109832799388000,3.511387939453125,-0.1630948930978775,0.4213128387928009,-0.027670927345752716
1684109832809384000,3.521384033203125,-0.14673860371112823,0.4961368143558502,-0.07214675843715668
1684109832819379700,3.531379638671875,-0.09819556772708893,0.4946039021015167,-0.060806483030319214
1684109832829376000,3.5413759765625,-0.04564353823661804,0.38713136315345764,-0.009182477369904518
1684109832839372000,3.5513720703125,-0.010253055952489376,0.1736430674791336,0.0561712309718132
1684109832849367800,3.561367919921875,-0.007803584448993206,-0.03986357897520065,0.10559853166341782
1684109832859363800,3.57136376953125,-0.033948104828596115,-0.16032260656356812,0.09895341098308563
1684109832869359900,3.58135986328125,-0.06557974964380264,-0.2339111566543579,0.037768054753541946
1684109832879355000,3.59135498046875,-0.10212071985006332,-0.22074902057647705,-0.026098541915416718
1684109832889351000,3.601350830078125,-0.11590897291898727,-0.07761066406965256,-0.05265473946928978
1684109832899347000,3.611346923828125,-0.12142624706029892,0.06263166666030884,-0.02160414680838585
1684109832909343000,3.621343017578125,-0.13457417488098145,0.14706207811832428,0.042546596378088
1684109832919339000,3.631339111328125,-0.13398508727550507,0.21767659485340118,0.11565329879522324
1684109832929334800,3.641334716796875,-0.13357104361057281,0.29150041937828064,0.16837187111377716
1684109832939330800,3.651330810546875,-0.13325946033000946,0.2920958995819092,0.1639813780784607
1684109832949327000,3.6613271484375,-0.11738169938325882,0.1402857005596161,0.08117309957742691
1684109832959323000,3.671322998046875,-0.09815713763237,-0.08549841493368149,-0.025118453428149223
1684109832969319000,3.68131884765625,-0.08506887406110764,-0.22219857573509216,-0.08191803097724915
1684109832979314000,3.69131396484375,-0.089777871966362,-0.2641018033027649,-0.06107639521360397
1684109832989310000,3.70131005859375,-0.10064108669757843,-0.21238206326961517,0.0271496269851923
1684109832999306000,3.711305908203125,-0.11280880123376846,-0.12191714346408844,0.10668306797742844
1684109833009302000,3.721302001953125,-0.09596812725067139,-0.08136194944381714,0.14428000152111053
1684109833019297800,3.7312978515625,-0.060524385422468185,-0.11240695416927338,0.1615050584077835
1684109833029294000,3.741294189453125,-0.03113061748445034,-0.18564754724502563,0.17704132199287415
1684109833039289900,3.751289794921875,-0.009418931789696217,-0.28282231092453003,0.17919635772705078
1684109833049286000,3.761285888671875,-0.007190421223640442,-0.3280048668384552,0.1568901240825653
1684109833059282000,3.771281982421875,0.0041695586405694485,-0.2826821506023407,0.11347153037786484
1684109833069278000,3.78127783203125,0.024111051112413406,-0.20025686919689178,0.050849124789237976
1684109833079273000,3.79127294921875,0.04523551091551781,-0.15114817023277283,-0.021126801148056984
1684109833089269000,3.80126904296875,0.041725240647792816,-0.12113112956285477,-0.025782255455851555
1684109833099264800,3.8112646484375,0.043048564344644547,-0.1215021088719368,0.02509184554219246
1684109833109260800,3.8212607421875,0.029432697221636772,-0.1875661313533783,0.07739799469709396
1684109833119257000,3.831257080078125,-0.0006221404182724655,-0.286926805973053,0.09873976558446884
1684109833129252900,3.8412529296875,-0.032342974096536636,-0.40210217237472534,0.08977457880973816
1684109833139249000,3.851248779296875,-0.06062920764088631,-0.5068230032920837,0.058808669447898865
1684109833149245000,3.861244873046875,-0.06711150705814362,-0.5264996886253357,0.03516000881791115
1684109833159241000,3.871240966796875,-0.05560319125652313,-0.4418755769729614,0.018590085208415985
1684109833169237000,3.881237060546875,-0.034202735871076584,-0.31549426913261414,0.003160783089697361
1684109833179232000,3.89123193359375,-0.008272869512438774,-0.2169751524925232,0.01828114688396454
1684109833189227800,3.901227783203125,0.026674358174204826,-0.16818013787269592,0.049850620329380035
1684109833199224000,3.91122412109375,0.04895489662885666,-0.1917017102241516,0.06496672332286835
1684109833209219800,3.9212197265625,0.05298274755477905,-0.2334742397069931,0.037063706666231155
1684109833219216000,3.9312158203125,0.052686870098114014,-0.24582917988300323,-0.0016634496860206127
1684109833229212000,3.9412119140625,0.06508474051952362,-0.23590286076068878,-0.03467149659991264
1684109833239208000,3.9512080078125,0.07289072871208191,-0.24687987565994263,-0.04266523942351341
1684109833249204000,3.961203857421875,0.058635562658309937,-0.29312586784362793,-0.021323086693882942
1684109833259199700,3.97119970703125,0.023790230974555016,-0.30363577604293823,0.004720496945083141
1684109833269195800,3.98119580078125,-0.018373621627688408,-0.24060368537902832,0.016526948660612106
1684109833279191000,3.99119091796875,-0.05395079031586647,-0.14864179491996765,0.026873862370848656
1684109833289187000,4.00118701171875,-0.07187044620513916,-0.07729723304510117,0.02131400816142559
1684109833299182800,4.011182861328125,-0.07366648316383362,-0.05322466045618057,0.0024950471706688404
1684109833309179000,4.021178955078125,-0.06284279376268387,-0.04183704033493996,-0.018810169771313667
1684109833319175000,4.0311748046875,-0.036223433911800385,-0.02259889617562294,-0.01725941151380539
1684109833329171000,4.0411708984375,-0.008888212963938713,0.0024697037879377604,0.004370782524347305
1684109833339167000,4.0511669921875,0.001663497183471918,0.020399969071149826,0.01788552664220333
1684109833349162800,4.061162841796875,-0.001826904946938157,0.06924347579479218,0.023116353899240494
1684109833359159000,4.071158935546875,-0.02346002869307995,0.10873549431562424,0.024336613714694977
1684109833369154800,4.08115478515625,-0.03630567342042923,0.1257457584142685,0.02623557299375534
1684109833379149800,4.09114990234375,-0.027145197615027428,0.11081606894731522,0.021134020760655403
1684109833389145900,4.101145751953125,-0.0027063076850026846,0.08914019912481308,0.00539158470928669
1684109833399142100,4.11114208984375,0.024275774136185646,0.0807400569319725,0.0021656975150108337
1684109833409138000,4.121137939453125,0.02871032990515232,0.09097657352685928,-0.009414750151336193
1684109833419134000,4.131134033203125,0.02371210977435112,0.1311948299407959,-0.02441420592367649
1684109833429129700,4.141129638671875,0.012739330530166626,0.19005797803401947,-0.018401458859443665
1684109833439126000,4.1511259765625,0.022908344864845276,0.22583435475826263,0.0004055183380842209
1684109833449122000,4.1611220703125,0.043055612593889236,0.22734948992729187,0.027445055544376373
1684109833459117800,4.171117919921875,0.05087758228182793,0.18828144669532776,0.07618676126003265
1684109833469113900,4.18111376953125,0.045879095792770386,0.12353402376174927,0.11048538237810135
1684109833479108900,4.19110888671875,0.03393162041902542,0.07732684910297394,0.11698190122842789
1684109833489105000,4.20110498046875,0.019435100257396698,0.03427097573876381,0.11499891430139542
1684109833499101000,4.211100830078125,0.007445282768458128,-0.0031765331514179707,0.09457912296056747
1684109833509097000,4.221096923828125,0.002135472372174263,0.008395434357225895,0.06079160049557686
1684109833519092700,4.2310927734375,0.00022172497119754553,0.05028589442372322,0.0148848295211792
1684109833529089000,4.241089111328125,0.006363367196172476,0.04812220484018326,-0.016828317195177078
1684109833539084800,4.251084716796875,0.02463584765791893,0.039344422519207,-0.011478293687105179
1684109833549080800,4.261080810546875,0.05066478252410889,0.036066070199012756,0.024177173152565956
1684109833559077000,4.2710771484375,0.060945652425289154,0.011851279996335506,0.03923069313168526
1684109833569073000,4.281072998046875,0.05293210968375206,-0.016033830121159554,0.039542295038700104
1684109833579068000,4.29106787109375,0.03963920846581459,-0.040943440049886703,0.028133578598499298
1684109833589064000,4.30106396484375,0.017861340194940567,-0.044557902961969376,0.007156394422054291
1684109833599059700,4.311059814453125,0.007865963503718376,-0.010356258600950241,-0.020741548389196396
1684109833609056000,4.321055908203125,0.02059788815677166,0.041090186685323715,-0.0336260087788105
1684109833619052000,4.331052001953125,0.03583675995469093,0.07729879021644592,-0.02303515188395977
1684109833629047800,4.3410478515625,0.033517055213451385,0.09756895899772644,-0.0028568985871970654
1684109833639043800,4.3510439453125,0.009274301119148731,0.07710123062133789,0.025959568098187447
1684109833649040000,4.361039794921875,-0.0078103323467075825,0.02473144233226776,0.0643959790468216
1684109833659036000,4.371035888671875,-0.0004570785677060485,-0.031274303793907166,0.08730901777744293
1684109833669032000,4.381031982421875,0.015539044514298439,-0.07624804973602295,0.08835230022668839
1684109833679027700,4.39102783203125,0.02799065411090851,-0.08211793005466461,0.07320397347211838
1684109833689023000,4.40102294921875,0.03052540123462677,-0.04037253186106682,0.043422140181064606
1684109833699019000,4.41101904296875,0.024944480508565903,0.034745924174785614,0.012967829592525959
1684109833709014800,4.421014892578125,0.011058086529374123,0.08857466280460358,-0.007083335425704718
1684109833719010800,4.4310107421875,-0.00802585855126381,0.09009692072868347,-0.013156674802303314
1684109833729007000,4.441007080078125,-0.01386186107993126,0.04719172418117523,-0.009394188411533833
1684109833739003000,4.4510029296875,-0.019241178408265114,0.004223484545946121,0.0028166710399091244
1684109833748999400,4.46099951171875,-0.011507915332913399,-0.013137031346559525,0.01506840530782938
1684109833758995200,4.4709951171875,0.01056968979537487,-0.015536539256572723,0.026314668357372284
1684109833768991500,4.480991455078125,0.03281228244304657,-0.015307104215025902,0.01632457599043846
1684109833778987500,4.490987548828125,0.05416391044855118,0.009636063128709793,-0.002507434692233801
1684109833788983300,4.5009833984375,0.06620185822248459,0.050951339304447174,-0.0048889038152992725
1684109833798978300,4.510978271484375,0.06321591883897781,0.08033745735883713,0.00032902753446251154
1684109833808974600,4.520974609375,0.048353806138038635,0.09763713926076889,0.007217490114271641
1684109833818970400,4.530970458984375,0.032346077263355255,0.08645878732204437,0.022390849888324738
1684109833828966400,4.54096630859375,0.02275124192237854,0.05815098434686661,0.04517605900764465
1684109833838962400,4.55096240234375,0.016282688826322556,0.005082176066935062,0.05539540573954582
1684109833848958500,4.56095849609375,0.010846631601452827,-0.05551140755414963,0.04721852019429207
1684109833858954500,4.57095458984375,0.001523437793366611,-0.10373193025588989,0.011861060746014118
1684109833868950300,4.5809501953125,-0.0008841365925036371,-0.11359009891748428,-0.022706573829054832
1684109833878946300,4.5909462890625,0.0062225088477134705,-0.10371190309524536,-0.033601563423871994
1684109833888942600,4.600942626953125,0.019869230687618256,-0.07797602564096451,-0.029779788106679916
1684109833898938400,4.6109384765625,0.026239246129989624,-0.034166496247053146,-0.015919100493192673
1684109833908933400,4.620933349609375,0.033987052738666534,0.009931063279509544,-0.003848098684102297
1684109833918929400,4.630929443359375,0.03635486960411072,0.024131836369633675,-0.002938629128038883
1684109833928925400,4.640925537109375,0.035707999020814896,0.004965490661561489,-0.0070926714688539505
1684109833938921500,4.65092138671875,0.03875438868999481,-0.050390973687171936,-0.010676486417651176
1684109833948917500,4.66091748046875,0.0333603098988533,-0.11934752017259598,-0.005440305452793837
1684109833958913300,4.670913330078125,0.02046581730246544,-0.1682508885860443,-0.00012197287287563086
1684109833968909600,4.68090966796875,-0.005047645885497332,-0.1776556819677353,-0.008279893547296524
1684109833978905300,4.6909052734375,-0.027734849601984024,-0.1437738835811615,-0.017896568402647972
1684109833988901400,4.7009013671875,-0.03297847509384155,-0.07740804553031921,-0.01666436530649662
1684109833998897400,4.7108974609375,-0.02560977265238762,-0.027708398178219795,-0.008434665389358997
1684109834008893400,4.7208935546875,-0.008582902140915394,-0.022154564037919044,0.002202028874307871
1684109834018888400,4.730888427734375,0.010470683686435223,-0.04179750755429268,-0.011475167237222195
1684109834028884500,4.740884521484375,0.034847356379032135,-0.07883118838071823,-0.03076925128698349
1684109834038880300,4.75088037109375,0.04568588733673096,-0.10913369804620743,-0.028440050780773163
1684109834048876500,4.76087646484375,0.036225706338882446,-0.10628502070903778,-0.015213936567306519
1684109834058872600,4.77087255859375,0.018700776621699333,-0.06598527729511261,-0.005517900455743074
1684109834068868400,4.780868408203125,-0.00288873421959579,-0.02922319434583187,-0.003221344668418169
1684109834078864400,4.790864501953125,-0.015760857611894608,-0.028152870014309883,0.0032461420632898808
1684109834088860400,4.8008603515625,-0.02216024324297905,-0.07201027870178223,0.0018985121278092265
1684109834098856400,4.8108564453125,-0.018519703298807144,-0.11555615812540054,-0.001212592702358961
1684109834108852500,4.8208525390625,-0.017896689474582672,-0.14684686064720154,0.006766180973500013
1684109834118848300,4.83084814453125,-0.009415586479008198,-0.15515859425067902,-0.006119790021330118
1684109834128843300,4.84084326171875,-0.00115799973718822,-0.12488478422164917,-0.020870843902230263
1684109834138839600,4.850839599609375,0.0020092977210879326,-0.08980534970760345,-0.03067074343562126
1684109834148835300,4.86083544921875,0.006772808264940977,-0.06050749123096466,-0.045191388577222824
1684109834158831400,4.870831298828125,0.004919247701764107,-0.033622611314058304,-0.0453338660299778
1684109834168827400,4.880827392578125,0.000645606080070138,-0.024706393480300903,-0.0371847078204155
1684109834178823400,4.890823486328125,-0.0015613555442541838,-0.034357424825429916,-0.018744714558124542
1684109834188819500,4.9008193359375,-0.0014505909057334065,-0.04091562330722809,0.006239057518541813
1684109834198815200,4.910815185546875,-0.011268068104982376,-0.048176202923059464,0.02376718446612358
1684109834208811500,4.9208115234375,-0.01728607527911663,-0.06361208111047745,0.02397795394062996
1684109834218807600,4.9308076171875,-0.023401493206620216,-0.07747729122638702,0.014092299155890942
1684109834228803300,4.94080322265625,-0.0184620413929224,-0.08828936517238617,-0.006026789546012878
1684109834238798300,4.95079833984375,-0.013520813547074795,-0.09790896624326706,-0.029051415622234344
1684109834248794400,4.96079443359375,-0.015477396547794342,-0.09179538488388062,-0.03986223414540291
1684109834258790400,4.970790283203125,-0.013772441074252129,-0.05068204179406166,-0.047910839319229126
1684109834268786400,4.980786376953125,-0.011671184562146664,-0.005404671188443899,-0.0478995181620121
1684109834278782500,4.990782470703125,-0.0014899194939062,0.0197219867259264,-0.031490448862314224
1684109834288778200,5.0007783203125,0.00893557071685791,0.006328693591058254,-0.010714949108660221
1684109834298774500,5.0107744140625,0.015293600969016552,-0.04054374247789383,0.011432165279984474
1684109834308770300,5.020770263671875,0.006818271242082119,-0.08315921574831009,0.01516109611839056
1684109834318766300,5.030766357421875,-0.020786724984645844,-0.09927213937044144,-0.0018258767668157816
1684109834328762400,5.040762451171875,-0.06020073592662811,-0.08974789083003998,-0.022974137216806412
1684109834338758400,5.05075830078125,-0.10025227814912796,-0.05320160090923309,-0.047777753323316574
1684109834348754400,5.06075439453125,-0.12596365809440613,-0.0019417530857026577,-0.07270427793264389
1684109834358749400,5.07074951171875,-0.12031535804271698,0.023219792172312737,-0.08488184958696365
1684109834368745200,5.0807451171875,-0.09132915735244751,0.015260620042681694,-0.07555760443210602
1684109834378741500,5.090741455078125,-0.055252112448215485,-0.01736416667699814,-0.05199875310063362
1684109834388737500,5.100737548828125,-0.020167581737041473,-0.05698942020535469,-0.0345553420484066
1684109834398733300,5.1107333984375,0.013864156790077686,-0.06529369205236435,-0.029880428686738014
1684109834408729300,5.120729248046875,0.024878989905118942,-0.019414348527789116,-0.034087955951690674
1684109834418725400,5.130725341796875,0.012907282449305058,0.055818889290094376,-0.0308210588991642
1684109834428721400,5.140721435546875,-0.02071654424071312,0.14986830949783325,-0.025975996628403664
1684109834438717400,5.150717529296875,-0.05237913131713867,0.22997593879699707,-0.026763759553432465
1684109834448713200,5.160713134765625,-0.07311887294054031,0.2593090832233429,-0.027795637026429176
1684109834458709500,5.17070947265625,-0.0746896043419838,0.20455902814865112,-0.02907182276248932
1684109834468704500,5.18070458984375,-0.04698289930820465,0.11928246915340424,-0.04832630977034569
1684109834478700300,5.1907001953125,-0.0031464691273868084,0.057232148945331573,-0.07853134721517563
1684109834488696300,5.2006962890625,0.04891975224018097,0.006784103810787201,-0.08641538769006729
1684109834498692600,5.210692626953125,0.07079841941595078,-0.04492276906967163,-0.08383478224277496
1684109834508688400,5.2206884765625,0.06432593613862991,-0.0279848650097847,-0.0725894346833229
1684109834518684400,5.230684326171875,0.03522797301411629,0.07889337837696075,-0.06268593668937683
1684109834528680400,5.240680419921875,-0.006019663531333208,0.22143542766571045,-0.08955898135900497
1684109834538676500,5.250676513671875,-0.03665640205144882,0.3315209150314331,-0.09415293484926224
1684109834548672500,5.260672607421875,-0.0579882450401783,0.33658912777900696,-0.07522018253803253
1684109834558668300,5.270668212890625,-0.07043719291687012,0.2593260109424591,-0.07603031396865845
1684109834568664300,5.280664306640625,-0.0694318488240242,0.1561996340751648,-0.07007655501365662
1684109834578660600,5.29066064453125,-0.048817917704582214,0.05343783274292946,-0.06565357744693756
1684109834588655400,5.3006552734375,-0.04334132745862007,-0.0071539441123604774,-0.08577227592468262
1684109834598651400,5.3106513671875,-0.047578684985637665,0.013572372496128082,-0.1146254912018776
1684109834608647400,5.3206474609375,-0.050790950655937195,0.06974208354949951,-0.12945179641246796
1684109834618643500,5.3306435546875,-0.033773086965084076,0.1322413980960846,-0.15440908074378967
1684109834628639500,5.340639404296875,-0.0023660229053348303,0.20116069912910461,-0.16017086803913116
1684109834638635500,5.350635498046875,0.04326537996530533,0.20077933371067047,-0.10743094980716705
1684109834648631300,5.36063134765625,0.08757884800434113,0.15261013805866241,-0.03356216475367546
1684109834658627600,5.370627685546875,0.09512757509946823,0.08149947226047516,0.0370936281979084
1684109834668623400,5.380623291015625,0.05941358208656311,-0.02323899231851101,0.10266320407390594
1684109834678619400,5.390619384765625,-0.022747334092855453,-0.11072223633527756,0.13690851628780365
1684109834688615400,5.400615478515625,-0.14676569402217865,-0.09947118908166885,0.08349412679672241
1684109834698611500,5.410611572265625,-0.21571466326713562,0.024173785001039505,0.024724548682570457
1684109834708606500,5.4206064453125,-0.20460951328277588,0.1394767165184021,-0.04588382691144943
1684109834718602500,5.4306025390625,-0.12122941017150879,0.1761620044708252,-0.12188112735748291
1684109834728598300,5.440598388671875,0.01711839810013771,0.09368596971035004,-0.14083033800125122
1684109834738594300,5.45059423828125,0.16430705785751343,-0.11479479819536209,-0.04944423586130142
1684109834748589800,5.46058984375,0.24032941460609436,-0.3148163855075836,0.06029057502746582
1684109834758585600,5.470585693359375,0.22261513769626617,-0.367128849029541,0.13478371500968933
1684109834768582000,5.480581787109375,0.11237280815839767,-0.2821093201637268,0.17595495283603668
1684109834778578000,5.490577880859375,-0.05860452726483345,-0.10696357488632202,0.1355031281709671
1684109834788573700,5.50057373046875,-0.19947461783885956,0.1324211210012436,0.05664776265621185
1684109834798569700,5.51056982421875,-0.25460925698280334,0.2756754755973816,0.0030529778450727463
1684109834808565800,5.520565673828125,-0.22975371778011322,0.2547929286956787,-0.045163344591856
1684109834818561800,5.530561767578125,-0.12944656610488892,0.1131119653582573,-0.06272315979003906
1684109834828556800,5.540556884765625,0.013973128981888294,-0.08615963160991669,-0.012180023826658726
1684109834838552800,5.550552734375,0.1226937472820282,-0.28735053539276123,0.06367692351341248
1684109834848548900,5.560548828125,0.15993808209896088,-0.3603622615337372,0.09701318293809891
1684109834858545000,5.570544921875,0.13073866069316864,-0.25838714838027954,0.10741548985242844
1684109834868540700,5.580540771484375,0.05011948198080063,-0.05301639810204506,0.09125357866287231
1684109834878536700,5.59053662109375,-0.040643710643053055,0.1601821631193161,0.042332109063863754
1684109834888533000,5.600532958984375,-0.0946664810180664,0.2543981373310089,0.010102616623044014
1684109834898528800,5.61052880859375,-0.09220172464847565,0.17095303535461426,-0.0067021953873336315
1684109834908524800,5.62052490234375,-0.05114809423685074,-0.03854578733444214,-0.01720425859093666
1684109834918520600,5.6305205078125,0.011291579343378544,-0.24257855117321014,0.0015076431445777416
1684109834928516900,5.640516845703125,0.05618457496166229,-0.336445689201355,0.019988369196653366
1684109834938513000,5.650512939453125,0.07004979252815247,-0.3233490586280823,0.006775361485779285
1684109834948508000,5.6605078125,0.062227822840213776,-0.22719591856002808,-0.010368205606937408
1684109834958503700,5.670503662109375,0.031657129526138306,-0.0956709086894989,-0.011998060159385204
1684109834968500000,5.6805,-0.0017266112845391035,0.012481849640607834,-0.0007736627012491226
1684109834978495700,5.690495849609375,-0.017495987936854362,0.017195643857121468,0.0218080785125494
1684109834988491800,5.70049169921875,-0.007171660661697388,-0.05067669227719307,0.04702658951282501
1684109834998487800,5.71048779296875,0.023975340649485588,-0.1720060557126999,0.07005680352449417
1684109835008483800,5.72048388671875,0.059701986610889435,-0.28713059425354004,0.074148029088974
1684109835018479900,5.73047998046875,0.09087561815977097,-0.3320900797843933,0.056066226214170456
1684109835028475600,5.7404755859375,0.09716229140758514,-0.3124329745769501,0.023676510900259018
1684109835038471700,5.7504716796875,0.08011379837989807,-0.258421927690506,-0.006355158053338528
1684109835048468000,5.760468017578125,0.053408242762088776,-0.17223651707172394,-0.02978166751563549
1684109835058463700,5.770463623046875,0.02478885091841221,-0.09384503215551376,-0.02008536458015442
1684109835068458800,5.780458740234375,0.020509857684373856,-0.06542240083217621,0.013383126817643642
1684109835078454800,5.790454833984375,0.031642138957977295,-0.10168133676052094,0.04337405040860176
1684109835088450600,5.800450439453125,0.06046294420957565,-0.17738868296146393,0.06007959321141243
1684109835098446800,5.81044677734375,0.09206055104732513,-0.24291150271892548,0.07309020310640335
1684109835108443000,5.82044287109375,0.11093682795763016,-0.2700401246547699,0.06092796474695206
1684109835118438700,5.830438720703125,0.10372819006443024,-0.22733792662620544,0.048171691596508026
1684109835128435000,5.84043505859375,0.08550536632537842,-0.13779833912849426,0.03067876026034355
1684109835138430700,5.8504306640625,0.06251616030931473,-0.04773421585559845,0.024574795737862587
1684109835148426800,5.8604267578125,0.04011974111199379,-0.013773763552308083,0.03581008315086365
1684109835158422800,5.8704228515625,0.03403788059949875,-0.045989759266376495,0.05283114314079285
1684109835168418800,5.880418701171875,0.04589766636490822,-0.09889563173055649,0.05774882808327675
1684109835178414800,5.890414794921875,0.054302871227264404,-0.15259721875190735,0.055370625108480453
1684109835188409900,5.900409912109375,0.05377054587006569,-0.1997380554676056,0.033139899373054504
1684109835198405600,5.910405517578125,0.04997874051332474,-0.22969143092632294,0.01494225300848484
1684109835208401700,5.920401611328125,0.04842838644981384,-0.23240984976291656,0.009335458278656006
1684109835218398000,5.93039794921875,0.039660193026065826,-0.21561355888843536,0.019792361184954643
1684109835228393700,5.940393798828125,0.03864053264260292,-0.17657673358917236,0.024458903819322586
1684109835238389800,5.9503896484375,0.03370542824268341,-0.11549794673919678,0.02027268148958683
1684109835248385800,5.9603857421875,0.02791574038565159,-0.049483608454465866,0.011329662054777145
1684109835258381800,5.9703818359375,0.02828245796263218,-0.016430316492915154,0.006403080187737942
1684109835268377900,5.9803779296875,0.0315709188580513,-0.019614549353718758,-0.004838081076741219
1684109835278373600,5.99037353515625,0.03439999371767044,-0.054621800780296326,-0.00559708196669817
1684109835288370000,6.000369873046875,0.035607557743787766,-0.09517472237348557,-0.010457589291036129
1684109835298366000,6.010365966796875,0.033377692103385925,-0.09400452673435211,-0.024427199736237526
1684109835308361700,6.02036181640625,0.026824593544006348,-0.05894733592867851,-0.03402261435985565
1684109835318356700,6.030356689453125,0.019227925688028336,0.006603975780308247,-0.02751730941236019
1684109835328352800,6.040352783203125,0.010282773524522781,0.07425426691770554,-0.024915974587202072
1684109835338348800,6.050348876953125,0.0052331541664898396,0.11383096873760223,-0.02586379274725914
1684109835348344800,6.0603447265625,0.009394076652824879,0.1021713837981224,-0.0018926810007542372
1684109835358340900,6.0703408203125,0.009233755059540272,0.07173358649015427,0.023337841033935547
1684109835368336600,6.080336669921875,0.004538664594292641,0.05407408997416496,0.04436764493584633
1684109835378333000,6.0903330078125,-0.005676422268152237,0.05449646711349487,0.0609266497194767
1684109835388328700,6.10032861328125,-0.014813321642577648,0.06702571362257004,0.07064474374055862
1684109835398324700,6.11032470703125,-0.010416708886623383,0.1031070202589035,0.07580781728029251
1684109835408320800,6.12032080078125,0.0038772490806877613,0.15355712175369263,0.07341114431619644
1684109835418316800,6.13031689453125,0.015383436344563961,0.15999504923820496,0.06166607141494751
1684109835428312800,6.140312744140625,0.02271435596048832,0.13751442730426788,0.03978027030825615
1684109835438307800,6.150307861328125,0.015495059080421925,0.10623665899038315,0.015571068041026592
1684109835448303600,6.1603037109375,0.005177580751478672,0.07699289172887802,-0.0032801590859889984
1684109835458300000,6.1702998046875,0.004950413014739752,0.0611039400100708,-0.010906387120485306
1684109835468296000,6.1802958984375,0.025637175887823105,0.041468046605587006,-0.0062636565417051315
1684109835478291700,6.190291748046875,0.04735072702169418,0.01015220396220684,0.002426770981401205
1684109835488287700,6.200287841796875,0.06360077112913132,-0.018897468224167824,0.016611242666840553
1684109835498283800,6.21028369140625,0.06479892134666443,-0.034371767193078995,0.028009571135044098
1684109835508279800,6.22027978515625,0.05008799955248833,-0.025118758901953697,0.02930159866809845
1684109835518275800,6.23027587890625,0.0293494313955307,-0.005372485611587763,0.028840871527791023
1684109835528271600,6.240271728515625,0.010627247393131256,0.009510817006230354,0.028708413243293762
1684109835538268000,6.250267822265625,-0.0008818699279800057,0.01546724233776331,0.025540316477417946
1684109835548263700,6.260263671875,-0.003991303034126759,-0.0035060932859778404,0.021890835836529732
1684109835558259700,6.270259765625,0.006731116212904453,-0.03200218454003334,0.013158062472939491
1684109835568254700,6.280254638671875,0.022803129628300667,-0.05656828731298447,0.003049669787287712
1684109835578251000,6.2902509765625,0.038608722388744354,-0.08130878210067749,0.0017298070015385747
1684109835588246800,6.300246826171875,0.044830527156591415,-0.09477146714925766,-0.0002944193547591567
1684109835598242800,6.310242919921875,0.041996922343969345,-0.10529148578643799,-0.0027874044608324766
1684109835608238600,6.320238525390625,0.026723477989435196,-0.10309471935033798,-0.001509647467173636
1684109835618235000,6.33023486328125,0.014015940017998219,-0.09664135426282883,-0.0011128365295007825
1684109835628231000,6.34023095703125,0.006377424579113722,-0.10242938250303268,0.013785095885396004
1684109835638226700,6.350226806640625,0.019046615809202194,-0.11013496667146683,0.022471528500318527
1684109835648222700,6.36022265625,0.031644951552152634,-0.0992455780506134,0.0273894052952528
1684109835658218800,6.37021875,0.04082992672920227,-0.07526541501283646,0.024346744641661644
1684109835668214800,6.38021484375,0.03856034204363823,-0.05213337019085884,0.028235968202352524
1684109835678210800,6.3902109375,0.020437000319361687,-0.03780157119035721,0.028488168492913246
1684109835688206600,6.40020654296875,-0.0020183436572551727,-0.028093509376049042,0.023666614666581154
1684109835698201900,6.410201904296875,-0.024846427142620087,-0.02320421300828457,0.01799594610929489
1684109835708198000,6.420197998046875,-0.020739680156111717,-0.04535703733563423,0.016680750995874405
1684109835718193700,6.430193603515625,0.0038085393607616425,-0.07569417357444763,0.016854654997587204
1684109835728189700,6.440189697265625,0.030887765809893608,-0.09537486732006073,0.012185181491076946
1684109835738186000,6.45018603515625,0.048314157873392105,-0.08579840511083603,0.00881068967282772
1684109835748181500,6.460181396484375,0.05194896459579468,-0.04885011166334152,0.005838111508637667
1684109835758177500,6.470177490234375,0.04214613512158394,-0.003718850202858448,-0.0024536405690014362
1684109835768173600,6.480173583984375,0.02769576385617256,0.03029005229473114,0.0006213572341948748
1684109835778169600,6.490169677734375,0.01390564814209938,0.03237796947360039,0.0072097512893378735
1684109835788165600,6.50016552734375,0.0029742843471467495,0.01589818112552166,0.018365593627095222
1684109835798161400,6.510161376953125,-0.0006806379533372819,-0.014444276690483093,0.028742600232362747
1684109835808157400,6.520157470703125,0.005737833678722382,-0.0324307456612587,0.02931899204850197
1684109835818153700,6.53015380859375,0.011625549755990505,-0.02871297299861908,0.03089904598891735
1684109835828149500,6.5401494140625,0.007093116641044617,0.0024936830159276724,0.033637844026088715
1684109835838144500,6.55014453125,0.0014786400133743882,0.03440554440021515,0.019201377406716347
1684109835848140500,6.560140625,-0.00046480854507535696,0.05296710506081581,0.0025697126984596252
1684109835858136300,6.57013623046875,0.010764410719275475,0.045043401420116425,-0.005310048349201679
1684109835868132600,6.580132568359375,0.02431940659880638,0.020747944712638855,0.0007313457317650318
1684109835878128600,6.590128662109375,0.03827570006251335,-0.013395378366112709,0.0035902494564652443
1684109835888124400,6.60012451171875,0.039101190865039825,-0.0486164316534996,0.022234521806240082
1684109835898120700,6.61012060546875,0.026453841477632523,-0.049531761556863785,0.023680351674556732
1684109835908116500,6.620116455078125,0.007615921087563038,-0.010122755542397499,0.0112508749589324
1684109835918112500,6.630112548828125,-0.012934361584484577,0.027884280309081078,0.003948752768337727
1684109835928108500,6.640108642578125,-0.025167210027575493,0.061307989060878754,-0.00896376557648182
1684109835938104600,6.6501044921875,-0.024682248011231422,0.0631847158074379,-0.00691046891734004
1684109835948100600,6.6601005859375,-0.019985690712928772,0.04529315605759621,0.0004865736700594425
1684109835958096400,6.670096435546875,-0.017421863973140717,0.04068215936422348,0.0028964681550860405
1684109835968091400,6.68009130859375,-0.018058907240629196,0.05780494213104248,0.00828173104673624
1684109835978087400,6.69008740234375,-0.016436507925391197,0.07542867958545685,0.017292534932494164
1684109835988083700,6.700083740234375,-0.016230303794145584,0.07766726613044739,0.019874274730682373
1684109835998079500,6.71007958984375,-0.012187624350190163,0.06819227337837219,0.015747971832752228
1684109836008075500,6.720075439453125,-0.005416627041995525,0.03715957701206207,0.013187357224524021
1684109836018071600,6.730071533203125,-0.005126342177391052,0.006009381264448166,0.008366769179701805
1684109836028067600,6.740067626953125,-0.012009991332888603,0.004595459438860416,0.008503109216690063
1684109836038063600,6.750063720703125,-0.029649704694747925,0.03232083097100258,0.005482818000018597
1684109836048059400,6.760059326171875,-0.03336164727807045,0.05803416669368744,0.009708625264465809
1684109836058055700,6.7700556640625,-0.03535262495279312,0.05261809378862381,0.01816842146217823
1684109836068051500,6.780051513671875,-0.03384330868721008,0.039380282163619995,0.020315896719694138
1684109836078047500,6.790047607421875,-0.024456996470689774,0.040696416050195694,0.00928747933357954
1684109836088043500,6.80004345703125,-0.020630670711398125,0.04481556639075279,-0.001920334412716329
1684109836098038500,6.81003857421875,-0.014565587043762207,0.07082559168338776,-0.018093179911375046
1684109836108034600,6.82003466796875,-0.0052398694679141045,0.08927876502275467,-0.019793564453721046
1684109836118030600,6.830030517578125,-0.0022691134363412857,0.08992298692464828,-0.010523101314902306
1684109836128026400,6.8400263671875,-0.004468757659196854,0.07515561580657959,-0.004215628374367952
1684109836138022400,6.8500224609375,-0.00997990369796753,0.05431664362549782,0.0038026170805096626
1684109836148018700,6.860018798828125,-0.014267629012465477,0.05036540329456329,0.012024271301925182
1684109836158014500,6.870014404296875,-0.015096139162778854,0.04867855831980705,0.0193178690969944
1684109836168010500,6.880010498046875,-0.016744066029787064,0.039740100502967834,0.023766471073031425
1684109836178006500,6.890006591796875,-0.014335237443447113,0.02088438905775547,0.025344926863908768
1684109836188002600,6.90000244140625,-0.009464709088206291,-0.01806740090250969,0.03061714395880699
1684109836197998600,6.90999853515625,-0.0065767765045166016,-0.05238782614469528,0.0330912210047245
1684109836207994400,6.919994384765625,-0.0075327614322304726,-0.06197711452841759,0.028085794299840927
1684109836217990700,6.92999072265625,-0.01536591723561287,-0.04230141639709473,0.02251233160495758
1684109836227986700,6.939986572265625,-0.022325731813907623,-0.015762532129883766,0.008755492977797985
1684109836237981400,6.9499814453125,-0.02809147536754608,0.005672718398272991,-0.004951531533151865
1684109836247977500,6.9599775390625,-0.021227506920695305,0.004748403560370207,-0.009036175906658173
1684109836257973500,6.969973388671875,-0.014527793973684311,-0.02073005773127079,-0.013555027544498444
1684109836267969500,6.979969482421875,-0.0010178596712648869,-0.03477516770362854,-0.012187100015580654
1684109836277965600,6.989965576171875,0.009266735054552555,-0.048275794833898544,-0.000578113947995007
1684109836287961600,6.999961669921875,0.018589625135064125,-0.057918477803468704,0.013649767264723778
1684109836297957400,7.009957275390625,0.016599180176854134,-0.05621272325515747,0.019653864204883575
1684109836307953700,7.01995361328125,0.013104936107993126,-0.04181332513689995,0.022693846374750137
1684109836317949400,7.029949462890625,0.0007752991514280438,-0.044744934886693954,0.026159418746829033
1684109836327945500,7.039945556640625,-0.01712365262210369,-0.04543641209602356,0.025751294568181038
1684109836337941800,7.049941650390625,-0.031536415219306946,-0.032949116080999374,0.028877846896648407
1684109836347937500,7.0599375,-0.038922782987356186,-0.006859408225864172,0.025761431083083153
1684109836357933600,7.06993359375,-0.03291229531168938,-0.008392056450247765,0.016223318874835968
1684109836367928600,7.079928466796875,-0.024245988577604294,-0.0327601283788681,-0.0015986942453309894
1684109836377924400,7.08992431640625,-0.009225493296980858,-0.07295975089073181,-0.00938471220433712
1684109836387920600,7.099920654296875,0.00827308651059866,-0.08557645976543427,-0.02035355754196644
1684109836397916700,7.109916748046875,0.014254280366003513,-0.06998098641633987,-0.012445035390555859
1684109836407912400,7.119912353515625,0.019069109112024307,-0.04485156014561653,0.005065459758043289
1684109836417908500,7.129908447265625,0.010674824938178062,-0.024849621579051018,0.019021756947040558
1684109836427904500,7.139904541015625,0.0012175103183835745,-0.012933348305523396,0.019075186923146248
1684109836437900500,7.149900634765625,-0.004632921889424324,-0.019503101706504822,0.015616806223988533
1684109836447896600,7.159896484375,-0.008443818427622318,-0.02441973052918911,0.010186648927628994
1684109836457892400,7.169892333984375,-0.000025299610570073128,-0.04080962389707565,0.010924611240625381
1684109836467888600,7.179888671875,0.0005906394217163324,-0.051864590495824814,0.011178703978657722
1684109836477884400,7.189884521484375,-0.002953761722892523,-0.053862761706113815,0.0066934083588421345
1684109836487880400,7.19988037109375,-0.008500517345964909,-0.05189527943730354,0.013617165386676788
1684109836497876700,7.209876708984375,-0.018870867788791656,-0.04602886736392975,0.0154331736266613
1684109836507872500,7.21987255859375,-0.024371571838855743,-0.026572303846478462,0.010580291040241718
1684109836517867500,7.229867431640625,-0.01616557501256466,-0.0033479402773082256,0.003795354627072811
1684109836527863600,7.239863525390625,-0.002499526832252741,0.00034896982833743095,-0.0025889845564961433
1684109836537859300,7.249859375,0.011500976979732513,-0.01480867713689804,-0.00007016665767878294
1684109836547855600,7.259855712890625,0.022062690928578377,-0.03632033243775368,-0.005569144152104855
1684109836557851600,7.2698515625,0.023457389324903488,-0.0561334528028965,-0.002668961649760604
1684109836567847400,7.279847412109375,0.020137328654527664,-0.06745298951864243,0.005706314463168383
1684109836577843500,7.289843505859375,0.010739833116531372,-0.07544992864131927,0.01908896490931511
1684109836587839500,7.299839599609375,-0.001105388393625617,-0.06582048535346985,0.024500593543052673
1684109836597835500,7.30983544921875,-0.005713189486414194,-0.036968860775232315,0.027328871190547943
1684109836607831600,7.31983154296875,-0.00694095715880394,-0.01508132554590702,0.01990746520459652
1684109836617827300,7.329827392578125,0.001680760527960956,-0.02001642994582653,0.0033548553474247456
1684109836627823600,7.33982373046875,0.013070151209831238,-0.04013264924287796,-0.0090082548558712
1684109836637819600,7.349819580078125,0.02619634009897709,-0.058814726769924164,-0.011450373567640781
1684109836647815400,7.3598154296875,0.0351298488676548,-0.06972493976354599,-0.0014180896105244756
1684109836657810400,7.369810546875,0.03235909342765808,-0.0695321261882782,0.00723824929445982
1684109836667806700,7.379806640625,0.024778634309768677,-0.053700730204582214,0.012340586632490158
1684109836677802500,7.389802490234375,0.013468720950186253,-0.030240146443247795,0.014208261854946613
1684109836687798500,7.399798583984375,0.004393823444843292,-0.008480306714773178,0.01171472854912281
1684109836697794600,7.409794677734375,0.0017133518122136593,-0.0011326447129249573,0.01050512120127678
1684109836707790600,7.41979052734375,0.00023778353352099657,-0.00300063518807292,0.011456920765340328
1684109836717786600,7.42978662109375,-0.004063754342496395,-0.001647216733545065,0.009287509135901928
1684109836727782400,7.439782470703125,0.0012773922644555569,-0.013942182995378971,-0.002167264698073268
1684109836737778400,7.4497783203125,0.01153908483684063,-0.03167217969894409,-0.017100941389799118
1684109836747775000,7.45977490234375,0.027541765943169594,-0.03315475210547447,-0.01763019524514675
1684109836757771000,7.46977099609375,0.047165799885988235,-0.032383766025304794,-0.014357169158756733
1684109836767767000,7.47976708984375,0.051404550671577454,-0.02909456193447113,-0.0049515292048454285
1684109836777763000,7.48976318359375,0.0644708201289177,-0.018312223255634308,0.005247045774012804
1684109836787759000,7.499759033203125,0.05834154039621353,0.00006198044866323471,0.018544292077422142
1684109836797755000,7.5097548828125,0.05014193430542946,0.016599144786596298,0.025126295164227486
1684109836807750000,7.51975,0.02467879094183445,0.005409479606896639,0.03238949179649353
1684109836817746000,7.529745849609375,0.001975609688088298,-0.021936923265457153,0.03631792217493057
1684109836827742200,7.5397421875,-0.003653603373095393,-0.051126718521118164,0.028297828510403633
1684109836837738000,7.549738037109375,0.000580822816118598,-0.06468034535646439,0.011713257990777493
1684109836847734000,7.559734130859375,0.0073076640255749226,-0.04660378023982048,0.010537149384617805
1684109836857730000,7.56972998046875,0.009042181074619293,-0.005460074171423912,0.010426627472043037
1684109836867726000,7.57972607421875,0.006112677976489067,0.05497049540281296,0.012639351189136505
1684109836877722000,7.58972216796875,0.006434387993067503,0.113070547580719,0.016929971054196358
1684109836887718000,7.5997177734375,0.009606314823031425,0.15079152584075928,0.027475988492369652
1684109836897714200,7.609714111328125,0.01666449010372162,0.15866941213607788,0.031589239835739136
1684109836907710000,7.6197099609375,0.018692828714847565,0.1513093262910843,0.04292403534054756
1684109836917706000,7.6297060546875,0.007917945273220539,0.1172080785036087,0.041499242186546326
1684109836927702000,7.639701904296875,-0.008434876799583435,0.07771530747413635,0.04478098452091217
1684109836937698000,7.649697998046875,-0.02730736881494522,0.06919825822114944,0.03282792121171951
1684109836947693000,7.659693115234375,-0.03782891109585762,0.09723104536533356,0.012868440710008144
1684109836957689000,7.669689208984375,-0.03902599960565567,0.14284752309322357,0.00043653894681483507
1684109836967684900,7.679684814453125,-0.03199814632534981,0.1697249710559845,-0.012492298148572445
1684109836977681000,7.689680908203125,-0.019889019429683685,0.19055062532424927,-0.017029792070388794
1684109836987677200,7.69967724609375,-0.004383056424558163,0.19472432136535645,-0.02350909262895584
1684109836997673000,7.7096728515625,0.0062813060358166695,0.19090507924556732,-0.016783544793725014
1684109837007669000,7.7196689453125,0.021017616614699364,0.16311216354370117,-0.004210371524095535
1684109837017665000,7.7296650390625,0.022118302062153816,0.11984112858772278,0.003888034727424383
1684109837027661000,7.7396611328125,0.009001674130558968,0.06349234282970428,0.012526433914899826
1684109837037657000,7.749656982421875,-0.015936432406306267,0.019736338406801224,0.014520874246954918
1684109837047652900,7.75965283203125,-0.032780442386865616,-0.0018897815607488155,0.01315363496541977
1684109837057649200,7.769649169921875,-0.034403905272483826,0.008064582012593746,0.004758552182465792
1684109837067645200,7.779645263671875,-0.02750709466636181,0.03193386271595955,-0.000010493909940123558
1684109837077641000,7.789640869140625,-0.013666112907230854,0.05120289698243141,-0.005949076730757952
1684109837087637000,7.799636962890625,-0.0023375453893095255,0.048116572201251984,-0.010974014177918434
1684109837097632000,7.809632080078125,0.00718112476170063,0.03485243394970894,-0.011844335123896599
1684109837107628000,7.8196279296875,0.013565470464527607,0.01867487281560898,-0.0115697355940938
1684109837117624000,7.8296240234375,0.014314884319901466,0.027330145239830017,-0.0062990738078951836
1684109837127620000,7.8396201171875,0.016913723200559616,0.052187420427799225,0.0016555640613660216
1684109837137616000,7.849615966796875,0.01700134016573429,0.07149001210927963,0.009425869211554527
1684109837147612200,7.859612060546875,0.009857208468019962,0.05921303853392601,0.022507736459374428
1684109837157608000,7.86960791015625,0.005383896641433239,0.03351646289229393,0.0392981693148613
1684109837167604000,7.87960400390625,-0.003157912753522396,0.006439047399908304,0.04744602367281914
1684109837177600300,7.889600341796875,-0.004099872894585133,0.005314394365996122,0.034500397741794586
1684109837187596000,7.899595947265625,-0.005347476340830326,0.029298391193151474,0.012560244649648666
1684109837197592000,7.909592041015625,-0.009273508563637733,0.038921985775232315,-0.002102588303387165
1684109837207587800,7.919587890625,-0.017307071015238762,0.029807299375534058,-0.005082136485725641
1684109837217584000,7.929584228515625,-0.012733358889818192,0.018851321190595627,0.0005469868192449212
1684109837227580200,7.939580078125,-0.003608506405726075,0.007985022850334644,0.0058561526238918304
1684109837237576000,7.949575927734375,0.0092226043343544,0.008308596909046173,-0.0015748655423521996
1684109837247572000,7.959572021484375,0.016096867620944977,0.007820824161171913,-0.0005361055373214185
1684109837257567000,7.96956689453125,0.018878273665905,0.0025277913082391024,-0.001888192375190556
1684109837267563000,7.97956298828125,0.012353579513728619,0.005305122584104538,-0.0025420254096388817
1684109837277559000,7.98955908203125,0.0044466545805335045,0.011050892993807793,-0.005867514759302139
1684109837287555000,7.99955517578125,0.0015819049440324306,0.008750463835895061,-0.009196550585329533
1684109837297550800,8.00955078125,-0.0021153613924980164,0.014855494722723961,-0.013624056242406368
1684109837307547100,8.019547119140626,-0.008753836154937744,0.007505159825086594,-0.009109380654990673
1684109837317543000,8.02954296875,-0.014513720758259296,0.002086958847939968,-0.004336196929216385
1684109837327539000,8.0395390625,-0.02088911272585392,-0.002290133386850357,0.0018317110370844603
1684109837337535200,8.04953515625,-0.018986284732818604,-0.014922039583325386,0.00936179980635643
1684109837347531000,8.059531005859375,-0.011315937153995037,-0.02089173160493374,0.008008129894733429
1684109837357527000,8.069527099609376,-0.005778958089649677,-0.012671617791056633,-0.0013712573563680053
1684109837367523000,8.079523193359375,0.004269377328455448,-0.006203511264175177,-0.022307489067316055
1684109837377519000,8.08951904296875,0.010954444296658039,-0.011462988331913948,-0.03526643291115761
1684109837387515100,8.09951513671875,0.022202709689736366,-0.016520576551556587,-0.037219054996967316
1684109837397511000,8.109510986328125,0.025313813239336014,-0.01580818183720112,-0.031919367611408234
1684109837407507000,8.1195068359375,0.021477289497852325,-0.01011379063129425,-0.017556309700012207
1684109837417502000,8.129501953125,0.019770735874772072,-0.03056367114186287,0.00015850493218749762
1684109837427498000,8.139498046875,0.018057461827993393,-0.06963377445936203,0.009431210346519947
1684109837437494000,8.149493896484374,0.017579423263669014,-0.09174813330173492,0.012275733053684235
1684109837447490000,8.159489990234375,0.016453159973025322,-0.10129397362470627,0.002710808999836445
1684109837457486000,8.169486083984374,0.01168610155582428,-0.09511570632457733,-0.00950191542506218
1684109837467482000,8.179482177734375,0.00902845710515976,-0.06507705897092819,-0.029320163652300835
1684109837477478100,8.18947802734375,0.0008871739264577627,-0.03485177457332611,-0.03748062252998352
1684109837487474000,8.199473876953125,-0.0025045627262443304,-0.02948439121246338,-0.03954872488975525
1684109837497470200,8.20947021484375,0.002485401928424835,-0.039216116070747375,-0.02553996630012989
1684109837507466000,8.219466064453124,0.01625283993780613,-0.05658474564552307,-0.011012433096766472
1684109837517462000,8.2294619140625,0.025811191648244858,-0.08222566545009613,-0.0031220195814967155
1684109837527458000,8.2394580078125,0.03042766824364662,-0.10548556596040726,0.003373036626726389
1684109837537454000,8.2494541015625,0.02878689393401146,-0.10013420879840851,-0.0015697902999818325
1684109837547450000,8.2594501953125,0.020239021629095078,-0.06449317932128906,-0.01291638519614935
1684109837557446000,8.26944580078125,0.013533715158700943,-0.047237496823072433,-0.014850106090307236
1684109837567442000,8.27944189453125,0.002766376594081521,-0.04247406870126724,-0.011571191251277924
1684109837577437000,8.28943701171875,-0.000725826364941895,-0.04635828733444214,-0.009044383652508259
1684109837587433200,8.29943310546875,-0.0054963212460279465,-0.04476942494511604,-0.02142026461660862
1684109837597429000,8.309428955078126,-0.007181835360825062,-0.028012016788125038,-0.02593831717967987
1684109837607425000,8.319425048828125,0.0025235225912183523,-0.015904754400253296,-0.020682035014033318
1684109837617421000,8.329421142578125,0.0077896565198898315,-0.009293723851442337,-0.010285587050020695
1684109837627417000,8.3394169921875,0.01692688651382923,-0.020027801394462585,0.007356187794357538
1684109837637413000,8.3494130859375,0.02203882299363613,-0.048365700989961624,0.02679566666483879
1684109837647409000,8.359408935546876,0.018105944618582726,-0.08191440254449844,0.042815182358026505
1684109837657405200,8.3694052734375,0.004071352072060108,-0.09511116147041321,0.03965214639902115
1684109837667401000,8.37940087890625,-0.002559500280767679,-0.0809512510895729,0.019992562010884285
1684109837677397000,8.38939697265625,0.005313070025295019,-0.06524153053760529,0.001570944907143712
1684109837687393000,8.39939306640625,0.015198178589344025,-0.05632154643535614,-0.007469869218766689
1684109837697389000,8.40938916015625,0.031086329370737076,-0.057985492050647736,-0.011721871793270111
1684109837707385000,8.419385009765625,0.04109800234436989,-0.06785311549901962,-0.010686994530260563
1684109837717381000,8.429381103515626,0.04969654977321625,-0.0933920368552208,-0.004637624602764845
1684109837727377000,8.439376953125,0.04886710271239281,-0.13617558777332306,0.011275071650743484
1684109837737373200,8.449373291015625,0.0316188745200634,-0.1609880030155182,0.023023074492812157
1684109837747368200,8.4593681640625,0.01229576300829649,-0.1672075390815735,0.02192167565226555
1684109837757364200,8.4693642578125,-0.005706673488020897,-0.1510578691959381,0.015459781512618065
1684109837767360300,8.4793603515625,-0.014442170970141888,-0.11576799303293228,0.0013009316753596067
1684109837777356000,8.48935595703125,-0.012185408733785152,-0.07529060542583466,-0.00581636605784297
1684109837787352000,8.49935205078125,0.010654520243406296,-0.041331712156534195,0.004033377394080162
1684109837797348400,8.509348388671874,0.03649836778640747,-0.03486502170562744,0.016191506758332253
1684109837807344000,8.51934423828125,0.053967539221048355,-0.047910623252391815,0.022763175889849663
1684109837817340200,8.529340087890626,0.047651853412389755,-0.05468543991446495,0.01811010204255581
1684109837827336200,8.539336181640625,0.03206513077020645,-0.04779176041483879,-0.003199772210791707
1684109837837332200,8.549332275390626,0.01226825825870037,-0.010374080389738083,-0.004191799554973841
1684109837847328300,8.559328369140625,-0.010362639091908932,0.04529276117682457,-0.0022062859497964382
1684109837857324000,8.569323974609375,-0.02656264789402485,0.09124001115560532,-0.0012755109928548336
1684109837867320000,8.579320068359374,-0.02871526964008808,0.09099888801574707,0.0008917315863072872
1684109837877316400,8.58931640625,-0.02039582096040249,0.05497031658887863,0.0047951266169548035
1684109837887312100,8.59931201171875,-0.004715101793408394,0.0015044473111629486,0.0006564041832461953
1684109837897308200,8.60930810546875,0.007013725116848946,-0.04017775505781174,-0.009979994967579842
1684109837907304000,8.619303955078125,0.013453641906380653,-0.05443565547466278,-0.013510771095752716
1684109837917299200,8.62929931640625,0.01656660996377468,-0.051157571375370026,-0.00866328552365303
1684109837927295200,8.639295166015625,0.011316441930830479,-0.02593371644616127,0.008444148115813732
1684109837937291300,8.649291259765626,-0.007268959656357765,0.01974615268409252,0.022708304226398468
1684109837947287000,8.659287109375,-0.019931642338633537,0.0864332765340805,0.024227187037467957
1684109837957283300,8.669283447265625,-0.029716895893216133,0.146709144115448,0.017953578382730484
1684109837967279000,8.679279052734374,-0.023578044027090073,0.16269981861114502,-0.005974126048386097
1684109837977275100,8.689275146484375,-0.005982271395623684,0.12940950691699982,-0.01170631404966116
1684109837987271200,8.699271240234374,0.011930770240724087,0.07599644362926483,-0.013678353279829025
1684109837997267200,8.70926708984375,0.014736942946910858,0.03598751127719879,-0.016496777534484863
1684109838007263200,8.71926318359375,0.0014975834637880325,0.036341190338134766,-0.007454098667949438
1684109838017259000,8.729259033203125,-0.0216269101947546,0.07856427133083344,0.0004381792386993766
1684109838027255000,8.739255126953125,-0.04420369490981102,0.1320885270833969,0.0038623064756393433
1684109838037251300,8.749251220703124,-0.04714888334274292,0.1300610601902008,0.013344758190214634
1684109838047247000,8.7592470703125,-0.03809366747736931,0.08596557378768921,0.016846127808094025
1684109838057243100,8.7692431640625,-0.016000881791114807,0.024608474224805832,0.0156724713742733
1684109838067239200,8.7792392578125,-0.005342505406588316,-0.006327998358756304,0.011216695420444012
1684109838077235200,8.789235107421876,-0.0006606681272387505,0.010119684971868992,0.0007536680204793811
1684109838087231200,8.799231201171875,-0.011094311252236366,0.06212930381298065,-0.010716050863265991
1684109838097226200,8.809226318359375,-0.014176121912896633,0.1258813887834549,-0.020789723843336105
1684109838107222000,8.819221923828126,-0.0089542455971241,0.14468498528003693,-0.011187402531504631
1684109838117218300,8.82921826171875,0.00440496951341629,0.1269208937883377,-0.0015837776008993387
1684109838127214000,8.839214111328126,0.011569543741643429,0.07339590787887573,0.016126781702041626
1684109838137210000,8.849210205078125,0.017061512917280197,0.0013688525650650263,0.02156229317188263
1684109838147206100,8.8592060546875,0.01147758960723877,-0.033907201141119,0.011171054095029831
1684109838157202200,8.8692021484375,0.006156060844659805,-0.02973269671201706,-0.005915254354476929
1684109838167198200,8.8791982421875,-0.0029252173844724894,-0.006416613236069679,-0.016755439341068268
1684109838177194200,8.8891943359375,-0.0005672544939443469,0.019081823527812958,-0.012023268267512321
1684109838187190000,8.89918994140625,-0.004337339196354151,0.03779067471623421,-0.007454743143171072
1684109838197186300,8.909186279296875,-0.002980724908411503,0.03334293141961098,0.0008886742871254683
1684109838207182000,8.91918212890625,-0.00033639592584222555,0.015130579471588135,-0.001264954567886889
1684109838217178000,8.92917822265625,0.007103943265974522,-0.006782708689570427,-0.004173925146460533
1684109838227174100,8.939174072265626,0.022845672443509102,-0.025153804570436478,-0.0013613878982141614
1684109838237170200,8.949170166015625,0.032678328454494476,-0.025752484798431396,-0.003424805123358965
1684109838247166200,8.959166259765626,0.03294742479920387,-0.017079398036003113,-0.008754774928092957
1684109838257162000,8.969161865234375,0.02594011463224888,0.0015187885146588087,-0.008684201166033745
1684109838267158300,8.979158203125,0.018148591741919518,0.028531331568956375,-0.01522409450262785
1684109838277154300,8.989154296875,0.011621716432273388,0.0384790375828743,-0.0162800382822752
1684109838287149300,8.9991494140625,0.004072910640388727,0.029221413657069206,-0.008822456933557987
1684109838297145000,9.00914501953125,-0.002037978731095791,-0.0033250777050852776,0.011603189632296562
1684109838307141000,9.01914111328125,-0.0006950100651010871,-0.03979460150003433,0.0353216789662838
1684109838317137200,9.02913720703125,0.0028978607151657343,-0.07197917252779007,0.04964176192879677
1684109838327133200,9.03913330078125,0.00734747014939785,-0.09544482082128525,0.04279743880033493
1684109838337129200,9.049129150390625,0.010686008259654045,-0.095847487449646,0.02672899141907692
1684109838347125000,9.059125,0.013675140216946602,-0.09193690121173859,0.0017032658215612173
1684109838357121300,9.069121337890625,0.014769699424505234,-0.07736089080572128,-0.01895194500684738
1684109838367117000,9.079116943359375,0.017638785764575005,-0.03506676107645035,-0.03571372479200363
1684109838377113000,9.089113037109374,0.02013549953699112,0.021445516496896744,-0.03301967307925224
1684109838387109000,9.099109130859375,0.02202526666224003,0.05134854465723038,-0.021670527756214142
1684109838397105200,9.109105224609374,0.023209307342767715,0.05009925737977028,-0.0032241411972790956
1684109838407101200,9.11910107421875,0.018283411860466003,0.008300557732582092,0.01232832483947277
1684109838417097200,9.12909716796875,0.01740936189889908,-0.059138137847185135,0.025703519582748413
1684109838427093200,9.13909326171875,0.021441780030727386,-0.1118297129869461,0.020944492891430855
1684109838437089300,9.14908935546875,0.015783628448843956,-0.1413378119468689,0.007634280249476433
1684109838447085000,9.1590849609375,0.011709650978446007,-0.126310795545578,-0.008321474306285381
1684109838457081000,9.1690810546875,0.004628306720405817,-0.08444909751415253,-0.029737815260887146
1684109838467077400,9.179077392578124,-0.003462872002273798,-0.031106069684028625,-0.041812796145677567
1684109838477072100,9.189072021484375,-0.007986783981323242,0.01874510943889618,-0.03600204735994339
1684109838487068200,9.199068115234375,-0.008967701345682144,0.035770345479249954,-0.01122997049242258
1684109838497064200,9.209064208984374,-0.0026272470131516457,0.006493947934359312,0.020472832024097443
1684109838507060000,9.21906005859375,0.00906041543930769,-0.0418739952147007,0.03298661857843399
1684109838517056300,9.22905615234375,0.014236267656087875,-0.08575410395860672,0.03378184139728546
1684109838527052300,9.23905224609375,0.014559956267476082,-0.09637466818094254,0.02276952937245369
1684109838537048000,9.249048095703126,0.011705314740538597,-0.07796290516853333,0.0023273725528270006
1684109838547044400,9.25904443359375,0.004911045078188181,-0.03742268308997154,-0.007337153889238834
1684109838557040000,9.2690400390625,0.0005964577430859208,-0.0026282165199518204,-0.007835164666175842
1684109838567036200,9.2790361328125,0.0006725621642544866,0.019646916538476944,0.0009400153066962957
1684109838577032200,9.2890322265625,0.0021902979351580143,0.026218265295028687,0.011657374911010265
1684109838587028200,9.2990283203125,-0.001161520485766232,0.021779634058475494,0.015875395387411118
1684109838597024300,9.309024169921875,-0.004633483476936817,0.015838654711842537,0.009313899092376232
1684109838607020000,9.31902001953125,-0.0047355834394693375,-0.0019396510906517506,0.00098544848151505
1684109838617016000,9.32901611328125,-0.005130530335009098,-0.01876257359981537,0.0016983766108751297
1684109838627012400,9.339012451171875,-0.003174844663590193,-0.025881340727210045,0.009668194688856602
1684109838637008100,9.349008056640624,-0.005038258619606495,-0.016633247956633568,0.010642113164067268
1684109838647004200,9.359004150390625,-0.01139148324728012,-0.00211980938911438,0.008809506893157959
1684109838657000200,9.369000244140626,-0.011483894661068916,0.013204552233219147,0.011048958636820316
1684109838666996200,9.378996337890625,-0.009207449853420258,0.02851105108857155,0.010243257507681847
1684109838676992300,9.3889921875,-0.0031857765279710293,0.034695178270339966,0.0074874176643788815
1684109838686987300,9.3989873046875,-0.007103413343429565,0.028180954977869987,-0.003626262303441763
1684109838696983000,9.408983154296875,-0.010151666589081287,0.0245987381786108,-0.010840765200555325
1684109838706979300,9.418979248046876,-0.013129385188221931,0.019290881231427193,-0.010250934399664402
1684109838716975000,9.42897509765625,-0.020836040377616882,0.011693947948515415,-0.010309523902833462
1684109838726971100,9.43897119140625,-0.019562697038054466,0.017339682206511497,-0.00820532813668251
1684109838736967200,9.44896728515625,-0.01235884428024292,0.027271674945950508,-0.006480398587882519
1684109838746962400,9.45896240234375,-0.006543260999023914,0.044112734496593475,0.0010004312498494983
1684109838756958500,9.46895849609375,-0.0036188443191349506,0.055062856525182724,0.013182529248297215
1684109838766954500,9.47895458984375,-0.002033426659181714,0.060681767761707306,0.011398004367947578
1684109838776950300,9.4889501953125,-0.009343537501990795,0.06406211853027344,0.0029147700406610966
1684109838786946600,9.498946533203124,-0.006167908199131489,0.06567326933145523,-0.0019339779391884804
1684109838796942600,9.508942626953125,-0.005387069191783667,0.05798472836613655,-0.011298717930912971
1684109838806938400,9.5189384765625,-0.011992114596068859,0.054603707045316696,-0.008106343448162079
1684109838816934400,9.528934326171875,-0.012725016102194786,0.03935231640934944,0.00151033082511276
1684109838826930400,9.538930419921876,-0.018297502771019936,0.026888355612754822,0.011985576711595058
1684109838836926500,9.548926513671875,-0.02090846560895443,0.023650486022233963,0.01900992915034294
1684109838846922500,9.558922607421875,-0.02428598888218403,0.02817497029900551,0.01630905270576477
1684109838856918300,9.568918212890624,-0.022779172286391258,0.035015832632780075,0.009770194068551064
1684109838866914600,9.57891455078125,-0.011038754135370255,0.042705848813056946,0.003427566960453987
1684109838876910300,9.588910400390626,0.0028853178955614567,0.03260740637779236,-0.004133147187530994
1684109838886906400,9.59890625,0.011785793118178844,0.019692998379468918,-0.018610691651701927
1684109838896901400,9.6089013671875,0.013128824532032013,0.016368307173252106,-0.030832204967737198
1684109838906897700,9.618897705078124,0.005801732651889324,0.015425480902194977,-0.023344039916992188
1684109838916893400,9.6288935546875,-0.011110937222838402,0.018908895552158356,-0.009663381613790989
1684109838926889500,9.638889404296876,-0.027633050456643105,0.008619643747806549,0.00911745335906744
1684109838936885200,9.64888525390625,-0.030642688274383545,-0.00936814397573471,0.0219711996614933
1684109838946881500,9.658881591796876,-0.02761227823793888,-0.012232108041644096,0.01793145202100277
1684109838956877600,9.668877685546875,-0.022691288962960243,0.01663203164935112,-0.002027343027293682
1684109838966873300,9.678873291015625,-0.011887185275554657,0.03627903014421463,-0.015232429839670658
1684109838976869400,9.688869384765624,-0.0021277659106999636,0.0506686195731163,-0.012781788595020771
1684109838986865400,9.698865478515625,0.011281643062829971,0.05324242636561394,-0.008685538545250893
1684109838996861400,9.708861328125,0.017974965274333954,0.0453147292137146,-0.010484769940376282
1684109839006857500,9.718857421875,0.02068815566599369,0.02827431634068489,-0.013774897903203964
1684109839016853200,9.728853271484375,0.02177472598850727,0.011349394917488098,-0.012200703844428062
1684109839026849500,9.738849609375,0.004527816083282232,0.006989257410168648,0.0004904093220829964
1684109839036845600,9.748845458984375,-0.01695244200527668,0.016716185957193375,0.005526446737349033
1684109839046841300,9.75884130859375,-0.029310790821909904,0.034810155630111694,-0.0015346846776083112
1684109839056837600,9.768837646484375,-0.03175504133105278,0.04672327637672424,-0.00680161826312542
1684109839066833400,9.77883349609375,-0.022569328546524048,0.03471914678812027,-0.007609243504703045
1684109839076829400,9.788829345703125,-0.012458902783691883,0.003059220500290394,0.0022143591195344925
1684109839086825500,9.798825439453125,0.004871453158557415,-0.036406468600034714,0.008127007633447647
1684109839096821500,9.808821533203124,0.004333494696766138,-0.05986146256327629,0.003237710101529956
1684109839106817500,9.818817626953125,0.005421712528914213,-0.04928746074438095,-0.006610952317714691
1684109839116812500,9.8288125,0.004983356222510338,-0.024450551718473434,-0.02785072661936283
1684109839126808300,9.838808349609375,-0.00010129041038453579,0.0055724554695189,-0.045333269983530045
1684109839136804400,9.848804443359375,-0.0027996052522212267,0.0206637904047966,-0.0601726695895195
1684109839146800600,9.858800537109374,0.0028138309717178345,0.029061172157526016,-0.06136003136634827
1684109839156796400,9.86879638671875,0.013812951743602753,0.012865956872701645,-0.04675712063908577
1684109839166792400,9.87879248046875,0.0296244565397501,-0.014762703329324722,-0.027373377233743668
1684109839176788500,9.88878857421875,0.03905550763010979,-0.045521680265665054,0.0033278102055191994
1684109839186784500,9.898784423828126,0.03570029139518738,-0.07476068288087845,0.03203876316547394
1684109839196780500,9.908780517578125,0.022455859929323196,-0.08033787459135056,0.04499797150492668
1684109839206776300,9.9187763671875,-0.006193867418915033,-0.06433305889368057,0.04287979006767273
1684109839216772600,9.928772705078124,-0.04142029955983162,-0.009764354676008224,0.026587102562189102
1684109839226768400,9.938768310546875,-0.06627868860960007,0.04534826800227165,-0.0034194989129900932
1684109839236764400,9.948764404296876,-0.05979415774345398,0.06656433641910553,-0.02757224068045616
1684109839246760400,9.958760498046875,-0.03144742175936699,0.04013345018029213,-0.03217953443527222
1684109839256756500,9.968756591796875,0.022154290229082108,-0.011500448919832706,-0.013459907844662666
1684109839266752500,9.97875244140625,0.058315858244895935,-0.06936458498239517,-0.0019069518893957138
1684109839276748500,9.98874853515625,0.06518840789794922,-0.089784637093544,-0.0021615498699247837
1684109839286744300,9.998744384765626,0.04275820404291153,-0.07672449946403503,0.00021132652182132006
1684109839296740600,10.00874072265625,0.0037181260995566845,-0.018610330298542976,0.008440493606030941
1684109839306736400,10.018736328125,-0.03664650395512581,0.05872942507266998,0.013395204208791256
1684109839316732400,10.028732421875,-0.05995182693004608,0.12318698316812515,0.006330369971692562
1684109839326728400,10.038728515625,-0.06144215911626816,0.1560884565114975,-0.008280891925096512
1684109839336724500,10.048724365234374,-0.03822631761431694,0.13960881531238556,-0.00863509252667427
1684109839346719500,10.058719482421875,-0.011430758982896805,0.11190158873796463,-0.009121017530560493
1684109839356715500,10.068715576171876,0.016208859160542488,0.09805208444595337,-0.019466066733002663
1684109839366711300,10.078711181640625,0.02591661363840103,0.10398507863283157,-0.024038182571530342
1684109839376707600,10.08870751953125,0.021357815712690353,0.11266831308603287,-0.008655496872961521
1684109839386703600,10.09870361328125,0.006557169836014509,0.12875154614448547,0.02635597251355648
1684109839396699400,10.108699462890625,-0.03127995878458023,0.14410972595214844,0.057733070105314255
1684109839406695400,10.1186953125,-0.07854259014129639,0.15128089487552643,0.07378850132226944
1684109839416691500,10.12869140625,-0.102432481944561,0.17138350009918213,0.06533455848693848
1684109839426687500,10.1386875,-0.10228395462036133,0.1802649348974228,0.03589856997132301
1684109839436683500,10.14868359375,-0.07244935631752014,0.13216878473758698,-0.0025904998183250427
1684109839446679300,10.15867919921875,-0.029420653358101845,0.06671430170536041,-0.024238837882876396
1684109839456675600,10.168675537109374,-0.002428715815767646,0.018639452755451202,-0.040597837418317795
1684109839466671400,10.17867138671875,0.0012841743882745504,-0.009513987228274345,-0.031135395169258118
1684109839476667400,10.18866748046875,-0.010628944262862206,-0.016544198617339134,0.00471900962293148
1684109839486663400,10.198663330078125,-0.034838397055864334,0.00014157965779304504,0.04246656969189644
1684109839496659500,10.208659423828125,-0.05460038408637047,0.02447541430592537,0.03333192691206932
1684109839506655500,10.218655517578124,-0.05671052262187004,0.05698397010564804,0.00693747540935874
1684109839516651300,10.2286513671875,-0.039873216301202774,0.06452257931232452,-0.016366515308618546
1684109839526647600,10.2386474609375,-0.003238507080823183,0.04083243012428284,-0.02915794402360916
1684109839536643600,10.2486435546875,0.026962803676724434,0.0011023296974599361,-0.03655247762799263
1684109839546639400,10.258639404296876,0.04924628138542175,-0.050606515258550644,-0.026318252086639404
1684109839556635400,10.268635498046875,0.05283356457948685,-0.08945830166339874,-0.006874246057122946
1684109839566631700,10.278631591796875,0.03749948740005493,-0.07364340126514435,0.0224545206874609
1684109839576627500,10.28862744140625,0.018386512994766235,-0.02827218733727932,0.049022749066352844
1684109839586623500,10.29862353515625,-0.012263680808246136,0.030188586562871933,0.06061739847064018
1684109839596618500,10.308618408203126,-0.03591175377368927,0.07172618061304092,0.04632794111967087
1684109839606614300,10.3186142578125,-0.032704126089811325,0.06872358173131943,0.02661748044192791
1684109839616610600,10.328610595703125,-0.021111654117703438,0.014886712655425072,0.005715926177799702
1684109839626606600,10.338606689453124,-0.0005251517286524177,-0.03228665888309479,-0.005267216823995113
1684109839636602400,10.348602294921875,0.011873461306095123,-0.05725645646452904,-0.005250704940408468
1684109839646598400,10.358598388671876,0.01699409820139408,-0.04244843125343323,-0.007964183576405048
1684109839656594400,10.368594482421875,0.005422663409262896,-0.0196661539375782,-0.011069961823523045
1684109839666590500,10.378590576171876,-0.007919888012111187,-0.0005732718855142593,-0.01879432238638401
1684109839676586500,10.38858642578125,-0.021354470402002335,0.009084947407245636,-0.02853962779045105
1684109839686582500,10.39858251953125,-0.02174065262079239,-0.00017701322212815285,-0.04107602313160896
1684109839696578600,10.40857861328125,-0.008642961271107197,-0.020649798214435577,-0.040714364498853683
1684109839706574300,10.41857421875,0.012295585125684738,-0.042533691972494125,-0.019915753975510597
1684109839716570400,10.4285703125,0.031156089156866074,-0.05693607032299042,0.00495098065584898
1684109839726566700,10.438566650390625,0.03474866971373558,-0.0791202187538147,0.018786005675792694
1684109839736562400,10.4485625,0.026610050350427628,-0.08579010516405106,0.036426786333322525
1684109839746558500,10.458558349609374,0.01440986804664135,-0.06659413874149323,0.04475490376353264
1684109839756555000,10.468554931640625,-0.006867190822958946,-0.035183753818273544,0.04812460020184517
1684109839766551000,10.478551025390624,-0.038287509232759476,0.014108073897659779,0.022901948541402817
1684109839776547000,10.488547119140625,-0.06625256687402725,0.062378935515880585,-0.005555791314691305
1684109839786543000,10.498543212890626,-0.06456543505191803,0.07970774918794632,-0.024775860831141472
1684109839796539100,10.5085390625,-0.03449408710002899,0.03326195478439331,-0.026424624025821686
1684109839806535000,10.518534912109375,0.002614550292491913,-0.049020785838365555,-0.007093398366123438
1684109839816531200,10.52853125,0.03273676335811615,-0.11399180442094803,0.0144443828612566
1684109839826527200,10.53852734375,0.03792840614914894,-0.12901447713375092,0.02280544675886631
1684109839836523000,10.54852294921875,0.017507024109363556,-0.08478337526321411,0.027226826176047325
1684109839846519000,10.55851904296875,-0.01799766905605793,-0.0014052134938538074,0.021489372476935387
1684109839856515000,10.56851513671875,-0.053410518914461136,0.08903414011001587,-0.00294299959205091
1684109839866510000,10.578510009765624,-0.06847526133060455,0.1554444134235382,-0.03530685976147652
1684109839876506000,10.588506103515625,-0.05193011090159416,0.16486267745494843,-0.04935982823371887
1684109839886502100,10.598502197265624,-0.029566604644060135,0.11305607855319977,-0.03126395493745804
1684109839896498000,10.608497802734375,-0.0001698352862149477,0.03155642747879028,-0.0019348294008523226
1684109839906494200,10.618494140625,0.016132261604070663,-0.040223389863967896,0.023304514586925507
1684109839916490000,10.628489990234375,0.028644323348999023,-0.07542505115270615,0.029119793325662613
1684109839926486000,10.638486083984375,0.022668050602078438,-0.055605147033929825,0.02270721085369587
1684109839936482300,10.648482421875,0.002956664888188243,-0.006196318659931421,0.013417571783065796
1684109839946478000,10.65847802734375,-0.023211060091853142,0.04718017578125,0.004246650729328394
1684109839956474000,10.66847412109375,-0.03494015708565712,0.0832473635673523,-0.010643616318702698
1684109839966470000,10.678469970703125,-0.028250407427549362,0.07862906157970428,-0.021174682304263115
1684109839976466200,10.688466064453126,-0.013726860284805298,0.026439623907208443,-0.010997944511473179
1684109839986462200,10.698462158203125,0.011900447309017181,-0.032988451421260834,0.0013070462737232447
1684109839996458000,10.7084580078125,0.024755259975790977,-0.08088699728250504,0.008148706518113613
1684109840006454000,10.7184541015625,0.025481553748250008,-0.0958176776766777,0.002840252360329032
1684109840016450000,10.728449951171875,0.014273906126618385,-0.07939955592155457,-0.007739155553281307
1684109840026446000,10.738446044921876,0.001912604202516377,-0.03513966500759125,-0.020052717998623848
1684109840036442000,10.748442138671875,-0.008360273204743862,0.005568086169660091,-0.030036376789212227
1684109840046438000,10.75843798828125,-0.00376013177447021,0.01764145866036415,-0.027492370456457138
1684109840056434200,10.76843408203125,0.00016510137356817722,0.004383709281682968,-0.005313032306730747
1684109840066430200,10.77843017578125,0.004847547505050898,-0.04420679062604904,0.01815321296453476
1684109840076426000,10.788426025390624,0.007243327330797911,-0.09793233126401901,0.04078182578086853
1684109840086422000,10.798422119140625,0.008060765452682972,-0.1153559461236,0.047512561082839966
1684109840096418000,10.80841796875,0.003803169820457697,-0.10183321684598923,0.0463373102247715
1684109840106414000,10.8184140625,-0.003916636575013399,-0.07147594541311264,0.02348237857222557
1684109840116410000,10.82841015625,-0.014599109068512917,-0.02749704010784626,-0.018668003380298615
1684109840126406100,10.83840625,-0.015038035809993744,0.0037125141825526953,-0.05433333292603493
1684109840136401200,10.848401123046875,-0.0028159902431070805,0.016789700835943222,-0.062075141817331314
1684109840146397200,10.858397216796876,0.015448412857949734,-0.0018356000073254108,-0.04673904553055763
1684109840156393000,10.86839306640625,0.03417869284749031,-0.03896379470825195,-0.01474009919911623
1684109840166389000,10.878388916015625,0.044392216950654984,-0.07784751057624817,0.030154947191476822
1684109840176385300,10.88838525390625,0.03955484926700592,-0.08893318474292755,0.062301162630319595
1684109840186381000,10.898381103515625,0.016269616782665253,-0.0619664303958416,0.0598306804895401
1684109840196377000,10.908377197265626,-0.011376125738024712,-0.0045667896047234535,0.031209155917167664
1684109840206372900,10.918372802734375,-0.032350990921258926,0.0781591609120369,-0.004923402797430754
1684109840216369200,10.928369140625,-0.03810501843690872,0.10962440818548203,-0.02073245868086815
1684109840226365200,10.938365234375,-0.02728516422212124,0.0881398618221283,-0.014890292659401894
1684109840236361000,10.94836083984375,-0.004084771033376455,0.026857327669858932,0.002395753748714924
1684109840246357000,10.95835693359375,0.017007198184728622,-0.03241025656461716,0.02395137958228588
1684109840256353000,10.96835302734375,0.026102159172296524,-0.05308118090033531,0.03879237547516823
1684109840266349000,10.97834912109375,0.016215503215789795,-0.03935105726122856,0.047948211431503296
1684109840276345000,10.988344970703125,-0.009155899286270142,-0.003207433968782425,0.045725271105766296
1684109840286341000,10.998341064453125,-0.04224015772342682,0.03548234701156616,0.03144501894712448
1684109840296337200,11.008337158203124,-0.06404958665370941,0.06437444686889648,0.00009029079228639603
1684109840306333200,11.018333251953125,-0.06275730580091476,0.07659116387367249,-0.03829127550125122
1684109840316329000,11.028328857421876,-0.028346600010991096,0.06397364288568497,-0.062449339777231216
1684109840326325200,11.0383251953125,0.016926923766732216,0.02673858031630516,-0.054384782910346985
1684109840336321000,11.048321044921876,0.05257599800825119,-0.015458675101399422,-0.021521640941500664
1684109840346317000,11.058317138671875,0.06634917110204697,-0.04166528210043907,0.015818437561392784
1684109840356313000,11.06831298828125,0.057011064141988754,-0.03195912763476372,0.04077465459704399
1684109840366309000,11.07830908203125,0.032038915902376175,-0.00556583097204566,0.05091855674982071
1684109840376305200,11.08830517578125,-0.008018488064408302,0.022167528048157692,0.043601520359516144
1684109840386301000,11.098301025390626,-0.0414251945912838,0.04969901219010353,0.026791203767061234
1684109840396297000,11.108296875,-0.06486473977565765,0.051478803157806396,-0.0008313700091093779
1684109840406293200,11.118293212890626,-0.06406223773956299,0.0450228676199913,-0.030646489933133125
1684109840416289000,11.1282890625,-0.03923944756388664,0.0168471559882164,-0.035410087555646896
1684109840426284000,11.138283935546875,0.0006881717126816511,-0.04031689837574959,-0.014733070507645607
1684109840436280000,11.148280029296876,0.040973275899887085,-0.10337788611650467,0.0061186812818050385
1684109840446276000,11.158276123046875,0.06651832908391953,-0.14112751185894012,0.01148438360542059
1684109840456272100,11.168272216796876,0.06832049041986465,-0.11859795451164246,0.009990882128477097
1684109840466268200,11.17826806640625,0.04652003198862076,-0.0539543516933918,-0.0014804514357820153
1684109840476264000,11.188263916015625,0.009213672950863838,0.027896305546164513,-0.014167217537760735
1684109840486260200,11.19826025390625,-0.024455519393086433,0.08466728031635284,-0.011014267802238464
1684109840496256000,11.208256103515625,-0.03579951822757721,0.10776061564683914,-0.002553937491029501
1684109840506252000,11.218251953125,-0.02818785049021244,0.066348135471344,0.0031135184690356255
1684109840516248000,11.228248046875,-0.007690297905355692,-0.04690491408109665,0.018079152330756187
1684109840526244000,11.238244140625,0.01229332759976387,-0.1590467095375061,0.031160488724708557
1684109840536240000,11.248240234375,0.018745368346571922,-0.21087980270385742,0.026438701897859573
1684109840546236200,11.258236083984375,0.016261108219623566,-0.18067362904548645,0.007596950512379408
1684109840556232000,11.26823193359375,0.0018763091647997499,-0.08189379423856735,-0.01705406792461872
1684109840566228200,11.278228271484375,-0.017431342974305153,0.056560222059488297,-0.03547541797161102
1684109840576224000,11.28822412109375,-0.0245789997279644,0.15702983736991882,-0.04013381898403168
1684109840586220000,11.298219970703125,-0.02023773081600666,0.17792972922325134,-0.024141298606991768
1684109840596216000,11.308216064453125,-0.003616675967350602,0.11559230089187622,0.0019640722312033176
1684109840606212000,11.318212158203124,0.020540161058306694,-0.008351517841219902,0.036813560873270035
1684109840616208100,11.3282080078125,0.04969910904765129,-0.12434043735265732,0.05317043140530586
1684109840626204000,11.338203857421876,0.0573849081993103,-0.1901172697544098,0.05541123077273369
1684109840636200200,11.3482001953125,0.040370501577854156,-0.18249744176864624,0.04422036185860634
1684109840646196200,11.3581962890625,0.006458176299929619,-0.09657229483127594,0.01973014883697033
1684109840656192000,11.36819189453125,-0.026280328631401062,0.030339045450091362,-0.02214646153151989
1684109840666188000,11.37818798828125,-0.050829045474529266,0.12311907857656479,-0.05769059807062149
1684109840676184000,11.38818408203125,-0.04653629660606384,0.138299360871315,-0.06262383610010147
1684109840686180000,11.39818017578125,-0.01808234490454197,0.07833144068717957,-0.043411947786808014
1684109840696176000,11.408176025390626,0.011347182095050812,-0.03934592753648758,-0.009286468848586082
1684109840706172000,11.418171875,0.031342461705207825,-0.1448742151260376,0.026986051350831985
1684109840716168200,11.428168212890625,0.036282625049352646,-0.18957458436489105,0.042871538549661636
1684109840726164200,11.438164306640624,0.02453969605267048,-0.16061322391033173,0.03280177712440491
1684109840736159000,11.448158935546875,-0.004936437122523785,-0.07763312011957169,0.01800898090004921
1684109840746155000,11.458155029296876,-0.01664857566356659,0.024730319157242775,-0.0008080978877842426
1684109840756150800,11.46815087890625,-0.02989274263381958,0.0865289717912674,-0.019349558278918266
1684109840766146600,11.478146484375,-0.028304459527134895,0.10314548015594482,-0.026370277628302574
1684109840776142600,11.488142578125,-0.013909540139138699,0.07792720943689346,-0.011781747452914715
1684109840786139000,11.498138916015625,0.007186981849372387,0.024424852803349495,0.0031054173596203327
1684109840796134700,11.508134765625,0.029291218146681786,-0.03342939168214798,0.022015457972884178
1684109840806130700,11.518130615234375,0.04072067141532898,-0.05155329406261444,0.04931578040122986
1684109840816126500,11.52812646484375,0.03456077724695206,-0.033043794333934784,0.07386267185211182
1684109840826122800,11.538122802734375,0.01019483245909214,-0.006185045465826988,0.0798303633928299
1684109840836118800,11.548118896484375,-0.02187655121088028,0.014143661595880985,0.06259491294622421
1684109840846114600,11.558114501953124,-0.04696733132004738,0.030858401209115982,0.04333571344614029
1684109840856110800,11.56811083984375,-0.05523458495736122,0.031307145953178406,0.009445656090974808
1684109840866106600,11.578106689453126,-0.042077161371707916,0.02773856744170189,-0.006333289202302694
1684109840876102700,11.5881025390625,-0.01929408311843872,-0.009762469679117203,-0.014018107205629349
1684109840886098700,11.5980986328125,-0.0012941459426656365,-0.062326718121767044,-0.008351114578545094
1684109840896094700,11.6080947265625,0.012404089793562889,-0.08542431145906448,-0.007115940563380718
1684109840906090800,11.6180908203125,0.02259368635714054,-0.05383540689945221,-0.021108068525791168
1684109840916086800,11.628086669921874,0.034711070358753204,0.005349618382751942,-0.03440336883068085
1684109840926082600,11.63808251953125,0.03956504538655281,0.03492344915866852,-0.036214686930179596
1684109840936078800,11.648078857421876,0.038632139563560486,0.03735731169581413,-0.024727674201130867
1684109840946074600,11.65807470703125,0.03755243122577667,0.024440517649054527,0.0026334880385547876
1684109840956070700,11.668070556640625,0.035530027002096176,0.011273849755525589,0.030926644802093506
1684109840966066700,11.678066650390624,0.042925525456666946,0.020741691812872887,0.043807126581668854
1684109840976062700,11.688062744140625,0.04055025428533554,0.025202753022313118,0.05705714970827103
1684109840986058800,11.698058837890626,0.02727515622973442,0.01532757468521595,0.08105909824371338
1684109840996054500,11.708054443359375,-0.004884112626314163,0.010434282943606377,0.08997802436351776
1684109841006050600,11.718050537109375,-0.029825350269675255,0.0235164612531662,0.05423003435134888
1684109841016046800,11.728046875,-0.04207935556769371,0.02869684249162674,0.006083277985453606
1684109841026042600,11.738042724609375,-0.03578796610236168,0.006026751361787319,-0.032215796411037445
1684109841036038700,11.74803857421875,-0.017659295350313187,-0.037540700286626816,-0.049547117203474045
1684109841046034700,11.75803466796875,0.006340413819998503,-0.08686605840921402,-0.05614515021443367
1684109841056030700,11.76803076171875,0.02758205309510231,-0.15976743400096893,-0.07312919199466705
1684109841066025700,11.778025634765624,0.04172650724649429,-0.2128659337759018,-0.09583987295627594
1684109841076021800,11.788021728515625,0.06018301472067833,-0.23331581056118011,-0.10725204646587372
1684109841086017500,11.798017578125,0.0896022692322731,-0.17453867197036743,-0.1055363193154335
1684109841096013800,11.808013916015625,0.13510289788246155,-0.05320850759744644,-0.09255553781986237
1684109841106009600,11.818009521484376,0.16090421378612518,0.05218149349093437,-0.04862600564956665
1684109841116005600,11.828005615234375,0.14704032242298126,0.06600809097290039,0.04243439435958862
1684109841126001700,11.838001708984375,0.0997069776058197,0.06986082345247269,0.1423669159412384
1684109841135997700,11.847997802734374,0.027460206300020218,0.08620917052030563,0.1647084355354309
1684109841145993700,11.85799365234375,-0.03181855008006096,0.07088401913642883,0.0918690413236618
1684109841155989800,11.86798974609375,-0.05758915841579437,-0.024043817073106766,0.01992693915963173
1684109841165985500,11.877985595703125,-0.06121538206934929,-0.15340599417686462,-0.03292790800333023
1684109841175981800,11.88798193359375,-0.06482157111167908,-0.24977275729179382,-0.04750072583556175
1684109841185977600,11.8979775390625,-0.061600349843502045,-0.2517135441303253,-0.05670643225312233
1684109841195973600,11.9079736328125,-0.04610820859670639,-0.14078408479690552,-0.07713474333286285
1684109841205970000,11.917969970703124,-0.01602485030889511,0.0033362391404807568,-0.08636324107646942
1684109841215965700,11.927965576171875,0.012821711599826813,0.09964999556541443,-0.06306857615709305
1684109841225961700,11.937961669921876,0.03591974079608917,0.12455762922763824,-0.023953348398208618
1684109841235957500,11.94795751953125,0.050737835466861725,0.09205561131238937,-0.0020342005882412195
1684109841245953800,11.957953857421876,0.059398483484983444,0.03913518041372299,0.009629569947719574
1684109841255949800,11.96794970703125,0.055739033967256546,-0.0067401668056845665,0.02217039465904236
1684109841265945600,11.977945556640625,0.03826313093304634,0.007651990279555321,0.03480350971221924
1684109841275941600,11.987941650390624,-0.0006437892443500459,0.0770057663321495,0.023219559341669083
1684109841285937700,11.997937744140625,-0.043751057237386703,0.15387922525405884,-0.0037408657371997833
1684109841295933700,12.00793359375,-0.07609675079584122,0.18714876472949982,-0.021919602528214455
1684109841305929700,12.0179296875,-0.07662957161664963,0.17535702884197235,-0.038419414311647415
1684109841315925500,12.027925537109375,-0.05599566176533699,0.13282234966754913,-0.04421205818653107
1684109841325921800,12.037921875,-0.021525420248508453,0.08803265541791916,-0.04484441876411438
1684109841335917800,12.047917724609375,0.007085186429321766,0.05338413640856743,-0.039641935378313065
1684109841345913600,12.05791357421875,0.018925625830888748,0.04116811975836754,-0.03754241764545441
1684109841355909600,12.06790966796875,0.017875541001558304,0.05446794629096985,-0.030249617993831635
1684109841365905700,12.07790576171875,0.011267249472439289,0.0722104012966156,-0.017141470685601234
1684109841375901700,12.087901611328125,-0.003361494280397892,0.06969238072633743,-0.0013776884879916906
1684109841385897700,12.097897705078125,-0.025164932012557983,0.04567026346921921,0.006280008237808943
1684109841395893800,12.107893798828124,-0.03656459227204323,0.02611360512673855,-0.007314363960176706
1684109841405889800,12.117889892578125,-0.046924199908971786,0.03466789424419403,-0.031463660299777985
1684109841415885600,12.127885498046876,-0.04141225665807724,0.07953549921512604,-0.04696192592382431
1684109841425881600,12.137881591796875,-0.033214882016181946,0.12220817059278488,-0.04584649205207825
