time,seconds_elapsed,z,y,x
1684099782147077600,0.01607763671875,-0.0678408145904541,0.24539422988891602,2.0867090225219727
1684099782157073400,0.026073486328125,-0.26217299699783325,0.28654858469963074,2.1784729957580566
1684099782167068700,0.036068603515625,-0.329115629196167,0.4550243616104126,2.0123023986816406
1684099782177064700,0.046064697265625,-0.3084132969379425,0.4989609122276306,1.6163016557693481
1684099782187060500,0.056060546875,-0.2566440999507904,0.352266401052475,1.113025426864624
1684099782197056500,0.066056396484375,-0.108345165848732,0.07854751497507095,0.5705990195274353
1684099782207052800,0.076052734375,0.03786594048142433,-0.1216936931014061,0.11211460828781128
1684099782217048600,0.086048583984375,0.11850272119045258,-0.21482551097869873,-0.17675501108169556
1684099782227044600,0.096044677734375,0.21670375764369965,-0.3078376054763794,-0.3302233815193176
1684099782237040600,0.10604052734375,0.25534915924072266,-0.32154223322868347,-0.33407458662986755
1684099782247036700,0.11603662109375,0.17942018806934357,-0.2879866659641266,-0.28572818636894226
1684099782257032700,0.12603271484375,0.09208875149488449,-0.20739515125751495,-0.25699642300605774
1684099782267028500,0.136028564453125,0.009465084411203861,-0.15732108056545258,-0.18209250271320343
1684099782277024500,0.1460244140625,-0.05151491239666939,-0.23567739129066467,-0.12106029689311981
1684099782287020800,0.156020751953125,0.00453206105157733,-0.4168265461921692,-0.06765265017747879
1684099782297015600,0.166015625,0.08691961318254471,-0.47225624322891235,0.06616000831127167
1684099782307011600,0.176011474609375,0.11403818428516388,-0.4345555305480957,0.15900999307632446
1684099782317007600,0.186007568359375,0.2011278122663498,-0.4442731440067291,0.16047872602939606
1684099782327003600,0.196003662109375,0.2638186812400818,-0.33443254232406616,0.22785474359989166
1684099782336999700,0.205999755859375,0.29203593730926514,-0.27371594309806824,0.32681941986083984
1684099782346995700,0.21599560546875,0.45527222752571106,-0.29666605591773987,0.36198514699935913
1684099782356991500,0.225991455078125,0.7650750875473022,-0.19244936108589172,0.3157199025154114
1684099782366987800,0.23598779296875,1.0621005296707153,-0.05736850947141647,0.24373187124729156
1684099782376983600,0.245983642578125,1.2049641609191895,0.09046436101198196,0.22583356499671936
1684099782386979600,0.2559794921875,0.9466273188591003,0.3507927656173706,0.39679521322250366
1684099782396975600,0.2659755859375,0.699126660823822,0.641412079334259,0.4617358446121216
1684099782406971600,0.2759716796875,0.9082253575325012,1.157738447189331,0.5083282589912415
1684099782416966700,0.285966552734375,0.3124285340309143,1.0373622179031372,0.9098564982414246
1684099782426962700,0.295962646484375,0.12426726520061493,1.1935800313949585,1.0216184854507446
1684099782436958500,0.30595849609375,0.6567359566688538,1.2482049465179443,1.1430847644805908
1684099782446954500,0.31595458984375,0.9998445510864258,1.0510423183441162,1.289599895477295
1684099782456950800,0.32595068359375,1.3453644514083862,0.795873761177063,1.233414649963379
1684099782466946600,0.335946533203125,1.641304612159729,0.6508384346961975,1.0978221893310547
1684099782476942600,0.345942626953125,2.0170609951019287,0.5575034618377686,0.8664078116416931
1684099782486938600,0.355938720703125,2.3545284271240234,0.9722622036933899,0.7920174598693848
1684099782496934700,0.3659345703125,2.435469150543213,2.1101982593536377,0.8059892058372498
1684099782506930700,0.3759306640625,2.39766001701355,3.205852508544922,0.7914071679115295
1684099782516926500,0.385926513671875,2.2437286376953125,4.139523506164551,0.8353080153465271
1684099782526922800,0.3959228515625,1.9764117002487183,5.0340352058410645,0.7555407881736755
1684099782536917800,0.405917724609375,1.6736558675765991,5.208332061767578,0.2879829704761505
1684099782546913500,0.41591357421875,1.089180827140808,4.771038055419922,-0.944231390953064
1684099782556909600,0.42590966796875,0.17080913484096527,5.241058826446533,-2.419877052307129
1684099782566905600,0.435905517578125,0.597870409488678,4.687709808349609,-2.671196222305298
1684099782576901600,0.445901611328125,2.350811243057251,4.02598237991333,-2.446131467819214
1684099782586897700,0.455897705078125,3.1601674556732178,4.0185089111328125,-2.2398293018341064
1684099782596893400,0.4658935546875,2.9929819107055664,4.139614582061768,-2.120321273803711
1684099782606889500,0.475889404296875,2.7044754028320312,4.7576375007629395,-1.7155873775482178
1684099782616885800,0.4858857421875,2.450434446334839,4.2506489753723145,-0.46648338437080383
1684099782626881500,0.495881591796875,2.3707356452941895,3.54976224899292,0.8623703718185425
1684099782636877600,0.505877685546875,2.2870514392852783,2.4210643768310547,1.42399001121521
1684099782646873600,0.51587353515625,1.8792684078216553,0.39017149806022644,1.0885390043258667
1684099782656869600,0.52586962890625,1.0933469533920288,-1.1979761123657227,0.36401429772377014
1684099782666864600,0.53586474609375,0.36453279852867126,-2.6927053928375244,-1.039820909500122
1684099782676860700,0.545860595703125,-0.27104976773262024,-2.9019198417663574,-1.6199580430984497
1684099782686856400,0.5558564453125,-0.2763325273990631,-2.291806697845459,-1.3873634338378906
1684099782696852700,0.565852783203125,0.034097760915756226,-1.2229490280151367,-0.6343000531196594
1684099782706848500,0.5758486328125,0.5240848660469055,-0.4194745421409607,0.16590546071529388
1684099782716844500,0.585844482421875,0.8562257885932922,-0.21611501276493073,0.5960776209831238
1684099782726840600,0.595840576171875,0.7536234259605408,-0.12248744815587997,0.779487669467926
1684099782736836600,0.605836669921875,0.48675021529197693,-0.014806000515818596,0.8603526949882507
1684099782746832600,0.61583251953125,0.42226701974868774,0.23606988787651062,1.139497995376587
1684099782756828700,0.62582861328125,0.6039865016937256,0.8438762426376343,1.58688485622406
1684099782766824400,0.635824462890625,0.7716150879859924,1.4380794763565063,1.6514700651168823
1684099782776820700,0.64582080078125,0.8585758209228516,1.6460869312286377,1.4440702199935913
1684099782786815700,0.655815673828125,0.9163486361503601,1.1742802858352661,1.044769525527954
1684099782796811500,0.6658115234375,0.8115407824516296,0.46123889088630676,0.7442954778671265
1684099782806807600,0.6758076171875,0.6731741428375244,0.08054063469171524,0.7827890515327454
1684099782816803600,0.685803466796875,0.5907703042030334,0.006385974586009979,0.8592424988746643
1684099782826799600,0.695799560546875,0.5347416400909424,0.1454930603504181,0.6363004446029663
1684099782836795600,0.705795654296875,0.22261600196361542,0.12619340419769287,0.23155510425567627
1684099782846791400,0.71579150390625,-0.6167291402816772,-0.23673540353775024,-0.17721772193908691
1684099782856787700,0.72578759765625,-1.7562116384506226,-0.632236897945404,-0.4267391562461853
1684099782866783700,0.73578369140625,-2.6916656494140625,-0.7927078008651733,-0.47409307956695557
1684099782876779500,0.745779541015625,-3.4500534534454346,-0.6888735890388489,-0.33062833547592163
1684099782886775600,0.755775634765625,-4.090163230895996,0.06366870552301407,-0.02477891556918621
1684099782896771600,0.765771484375,-4.632725238800049,1.3100438117980957,0.524233877658844
1684099782906767600,0.775767578125,-5.127870082855225,2.333223581314087,1.44703209400177
1684099782916762600,0.7857626953125,-5.5760087966918945,3.237098455429077,2.5037589073181152
1684099782926758400,0.79575830078125,-6.234947204589844,4.036436557769775,3.28788161277771
1684099782936754700,0.805754638671875,-7.304342269897461,4.257429122924805,3.6450889110565186
1684099782946750700,0.815750732421875,-8.58902359008789,3.877274513244629,3.5379810333251953
1684099782956746500,0.82574658203125,-9.771062850952148,2.927685499191284,2.9121599197387695
1684099782966742500,0.835742431640625,-10.641241073608398,1.3247158527374268,1.703776240348816
1684099782976738800,0.84573876953125,-11.153463363647461,-0.16748441755771637,0.1812468022108078
1684099782986734600,0.855734619140625,-11.21302318572998,-0.7508550882339478,-1.2799110412597656
1684099782996730600,0.865730712890625,-11.006474494934082,-0.18656104803085327,-2.17043137550354
1684099783006726400,0.875726318359375,-10.808765411376953,0.9099089503288269,-2.3148863315582275
1684099783016722700,0.88572265625,-10.647114753723145,2.0862879753112793,-2.114250421524048
1684099783026718700,0.89571875,-10.400174140930176,2.823606014251709,-2.1328861713409424
1684099783036714500,0.905714599609375,-10.536513328552246,3.396003007888794,-2.082266092300415
1684099783046710500,0.91571044921875,-11.121167182922363,3.303114652633667,-1.6534675359725952
1684099783056705800,0.925705810546875,-11.338735580444336,3.1572494506835938,-1.1291241645812988
1684099783066701600,0.93570166015625,-11.197774887084961,2.9969546794891357,-0.4471471905708313
1684099783076697600,0.945697509765625,-11.052533149719238,2.6611669063568115,0.37393680214881897
1684099783086693600,0.955693603515625,-10.902243614196777,2.357086658477783,1.228427767753601
1684099783096689700,0.965689697265625,-10.46189022064209,2.533691644668579,2.015727996826172
1684099783106685700,0.975685791015625,-9.486470222473145,3.126457929611206,2.8982319831848145
1684099783116681500,0.985681396484375,-8.38717269897461,3.51277756690979,3.9703471660614014
1684099783126677500,0.995677490234375,-7.304938793182373,2.8618037700653076,5.055206775665283
1684099783136673800,1.005673828125,-6.1164445877075195,0.8786587715148926,5.6092329025268555
1684099783146669600,1.015669677734375,-5.143443584442139,-1.6181150674819946,5.1970648765563965
1684099783156665600,1.02566552734375,-4.464550495147705,-3.8205909729003906,3.952028274536133
1684099783166661400,1.035661376953125,-3.2624733448028564,-4.625598430633545,2.442786455154419
1684099783176656400,1.045656494140625,-1.9966211318969727,-3.6768617630004883,1.2303065061569214
1684099783186652700,1.055652587890625,-1.2132970094680786,-2.247016429901123,0.9408333897590637
1684099783196648700,1.065648681640625,-0.8151172399520874,-1.0195653438568115,1.9492037296295166
1684099783206644500,1.07564453125,0.41512203216552734,-0.6507286429405212,3.104891061782837
1684099783216640800,1.085640869140625,1.9424707889556885,-0.48689281940460205,3.3525428771972656
1684099783226636500,1.095636474609375,3.1735401153564453,-0.8322721123695374,2.532308578491211
1684099783236632600,1.105632568359375,3.897186756134033,-2.615370273590088,0.097430020570755
1684099783246628600,1.115628662109375,2.698371171951294,-6.0242018699646,-5.452029228210449
1684099783256624600,1.125624755859375,2.1800129413604736,-7.743397235870361,-8.601336479187012
1684099783266620700,1.13562060546875,1.8037972450256348,-6.992130756378174,-8.39693546295166
1684099783276616400,1.145616455078125,2.2142786979675293,-3.3353610038757324,-6.92623233795166
1684099783286612500,1.155612548828125,2.689781665802002,0.08200430870056152,-5.053905963897705
1684099783296607500,1.165607421875,2.265564441680908,1.9755680561065674,-3.5275914669036865
1684099783306603800,1.175603759765625,1.4127297401428223,2.0502960681915283,-2.1518349647521973
1684099783316599600,1.185599609375,0.5041022896766663,1.394246220588684,-0.915831983089447
1684099783326595600,1.195595703125,0.16715291142463684,2.033478021621704,0.8608837723731995
1684099783336591600,1.205591552734375,0.47571924328804016,4.176642894744873,3.1260292530059814
1684099783346587600,1.215587646484375,1.9441673755645752,5.713531494140625,4.418218612670898
1684099783356583700,1.225583740234375,3.137439012527466,6.174133777618408,5.031917095184326
1684099783366579500,1.235579345703125,3.316161632537842,5.4556732177734375,5.222048282623291
1684099783376575700,1.24557568359375,2.853710412979126,4.2836103439331055,4.1898393630981445
1684099783386571500,1.255571533203125,2.0782861709594727,2.65944242477417,2.722395181655884
1684099783396567600,1.265567626953125,1.853742003440857,1.2248194217681885,1.8904569149017334
1684099783406563600,1.2755634765625,1.1306909322738647,0.40063807368278503,2.1637656688690186
1684099783416559600,1.2855595703125,-0.40362748503685,0.25707054138183594,2.2969777584075928
1684099783426554600,1.2955546875,-1.6690165996551514,0.8071321249008179,1.99868643283844
1684099783436550700,1.305550537109375,-3.216153144836426,1.536544680595398,1.4917545318603516
1684099783446546400,1.31554638671875,-4.807404041290283,0.5620970129966736,0.69257652759552
1684099783456542500,1.32554248046875,-5.617453575134277,-2.6173012256622314,0.1663593202829361
1684099783466538800,1.335538818359375,-5.289116859436035,-4.965050220489502,-0.28446099162101746
1684099783476534500,1.345534423828125,-3.492670774459839,-5.842421054840088,-0.3967036306858063
1684099783486530600,1.355530517578125,-2.1740386486053467,-6.081160545349121,0.4616767168045044
1684099783496526600,1.365526611328125,-1.121411681175232,-5.6698737144470215,1.0825990438461304
1684099783506522600,1.375522705078125,-0.7510991096496582,-3.6775431632995605,0.709222674369812
1684099783516518700,1.3855185546875,-0.821571946144104,-2.0036964416503906,0.10715866833925247
1684099783526514400,1.395514404296875,-0.8493152856826782,-1.374783992767334,-0.1718805730342865
1684099783536510700,1.4055107421875,-0.7537397146224976,-1.036691427230835,-0.2655998766422272
1684099783546506800,1.4155068359375,-0.9125171899795532,0.22592231631278992,-0.4312874376773834
1684099783556501500,1.42550146484375,-1.7561653852462769,3.5526249408721924,-1.683551549911499
1684099783566497500,1.43549755859375,-3.4749526977539062,6.802807331085205,-3.3230535984039307
1684099783576493600,1.44549365234375,-5.4159255027771,8.178380966186523,-3.5153348445892334
1684099783586489600,1.455489501953125,-5.841288089752197,8.062304496765137,-2.3962247371673584
1684099783596485600,1.465485595703125,-3.7133071422576904,5.193688869476318,-0.7802033424377441
1684099783606481700,1.475481689453125,0.5615930557250977,2.2444088459014893,0.8382442593574524
1684099783616477400,1.4854775390625,1.6485755443572998,3.843604803085327,1.28471040725708
1684099783626473700,1.4954736328125,1.0693014860153198,3.9297983646392822,1.3545472621917725
1684099783636469500,1.505469482421875,0.8244757652282715,1.454872965812683,1.389864206314087
1684099783646465500,1.515465576171875,0.6592174172401428,-0.6135639548301697,1.3611642122268677
1684099783656461800,1.5254619140625,0.2491300255060196,-3.150280237197876,1.083263874053955
1684099783666457600,1.53545751953125,0.14449799060821533,-3.584435224533081,-0.1721019297838211
1684099783676453600,1.54545361328125,0.5623375773429871,-3.2551157474517822,-0.5501264929771423
1684099783686448600,1.55544873046875,1.1999317407608032,-1.0109366178512573,0.0522579625248909
1684099783696444400,1.5654443359375,1.8802690505981445,0.6610055565834045,0.15351852774620056
1684099783706440700,1.575440673828125,1.612451434135437,0.40862229466438293,0.47859814763069153
1684099783716436700,1.585436767578125,1.5954867601394653,1.2447280883789062,0.26905426383018494
1684099783726432500,1.5954326171875,1.7341443300247192,1.971163272857666,0.12587542831897736
1684099783736428500,1.605428466796875,1.4602153301239014,0.6749558448791504,0.19211862981319427
1684099783746424300,1.61542431640625,0.8720909953117371,-0.7112905979156494,0.5204988121986389
1684099783756420000,1.625420166015625,0.13825057446956635,-1.256021499633789,0.27103573083877563
1684099783766416100,1.635416015625,-0.5565352439880371,-1.016695261001587,0.009954207576811314
1684099783776412000,1.645411865234375,-0.7075088024139404,-0.3724243938922882,0.06189330667257309
1684099783786408200,1.655408203125,-0.38546618819236755,0.1355559378862381,0.3274601399898529
1684099783796404200,1.665404296875,0.39775800704956055,0.4983202815055847,0.3193649351596832
1684099783806400000,1.67539990234375,0.8261801600456238,-0.11738596856594086,0.07138380408287048
1684099783816396000,1.68539599609375,0.43167734146118164,-0.5745013356208801,-0.28439798951148987
1684099783826391300,1.695391357421875,0.12439308315515518,-0.6661686301231384,-0.26130008697509766
1684099783836387000,1.705386962890625,0.2658143937587738,-0.6198837161064148,-0.05562788248062134
1684099783846383000,1.715383056640625,0.5264562368392944,0.20007780194282532,0.16460207104682922
1684099783856379100,1.725379150390625,0.9033082723617554,0.8658396005630493,0.2601323127746582
1684099783866375200,1.735375244140625,1.240199089050293,0.8774567246437073,0.2017601728439331
1684099783876371200,1.74537109375,1.3812669515609741,0.8296037316322327,0.10288098454475403
1684099783886367000,1.755366943359375,1.471871256828308,3.9585981369018555,0.16897764801979065
1684099783896363000,1.765363037109375,1.6426118612289429,3.5863285064697266,1.088666558265686
1684099783906359300,1.775359375,2.028350353240967,0.812312126159668,3.43851637840271
1684099783916355000,1.78535498046875,1.4844802618026733,3.1393258571624756,3.3409385681152344
1684099783926351000,1.79535107421875,-0.8480088710784912,2.9775278568267822,2.215688943862915
1684099783936347000,1.805346923828125,-2.3037872314453125,0.06572473049163818,1.4991364479064941
1684099783946343200,1.81534326171875,-1.4068317413330078,-2.2305219173431396,1.613338589668274
1684099783956338200,1.825338134765625,-0.27643734216690063,-2.832925796508789,1.899113655090332
1684099783966334200,1.835334228515625,-0.2548414468765259,-1.2636661529541016,1.3321255445480347
1684099783976330000,1.845330078125,-0.5309725999832153,0.2440635859966278,0.6826255321502686
1684099783986326300,1.855326171875,-0.944257378578186,-0.0007198681123554707,0.5543805360794067
1684099783996322000,1.865322021484375,-1.3627185821533203,-0.5485485792160034,0.3920033574104309
1684099784006318000,1.875318115234375,-1.12259042263031,-0.9952949285507202,-0.25840872526168823
1684099784016314000,1.885314208984375,-0.7174679040908813,-1.5875446796417236,-1.1018691062927246
1684099784026310100,1.89531005859375,-0.5692938566207886,-2.165491819381714,-2.1563596725463867
1684099784036306200,1.90530615234375,-0.5449946522712708,-0.4785197377204895,-2.164541244506836
1684099784046302200,1.91530224609375,-0.3061457872390747,1.5031131505966187,-0.9400221109390259
1684099784056298000,1.925298095703125,-0.17271849513053894,0.9357043504714966,0.32764625549316406
1684099784066294300,1.935294189453125,-0.7862706184387207,-0.5055435299873352,0.6096104979515076
1684099784076290000,1.9452900390625,-1.8679907321929932,-1.29019033908844,-0.03919653594493866
1684099784086286000,1.9552861328125,-3.0559329986572266,-1.6763869524002075,-0.7199612855911255
1684099784096282000,1.9652822265625,-3.79705810546875,-2.0920510292053223,-1.1870845556259155
1684099784106276900,1.97527685546875,-4.609652519226074,-1.4891126155853271,-0.49079981446266174
1684099784116273200,1.985273193359375,-3.9058008193969727,-0.07107312977313995,0.06341544538736343
1684099784126269200,1.995269287109375,-3.6991381645202637,0.707832396030426,0.1827095001935959
1684099784136265000,2.005264892578125,-2.2579338550567627,0.011478670872747898,0.05516432598233223
1684099784146261200,2.01526123046875,0.01219266839325428,0.1727173626422882,-0.5361385345458984
1684099784156257300,2.02525732421875,0.45973795652389526,-1.0090405941009521,-0.8469566106796265
1684099784166253000,2.035253173828125,0.4331180453300476,-1.075609803199768,-1.2919508218765259
1684099784176249000,2.0452490234375,0.1832626760005951,-1.2926750183105469,-1.4989479780197144
1684099784186245000,2.0552451171875,-0.34122076630592346,-0.9910553097724915,-1.688116192817688
1684099784196241200,2.0652412109375,-1.036474585533142,-0.600761890411377,-2.069530963897705
1684099784206237200,2.0752373046875,-1.8504672050476074,0.014055879786610603,-2.308102607727051
1684099784216233000,2.08523291015625,-2.356081962585449,-0.5125772953033447,-1.7345304489135742
1684099784226229200,2.095229248046875,-1.8025771379470825,-0.856184184551239,-0.529416024684906
1684099784236224300,2.105224365234375,-1.6325396299362183,0.7928688526153564,-0.31709522008895874
1684099784246220000,2.115219970703125,-2.0140795707702637,2.08713960647583,-0.2696676552295685
1684099784256216000,2.125216064453125,-1.7369513511657715,1.6368210315704346,0.39726829528808594
1684099784266212000,2.135212158203125,-0.9025802612304688,1.8646715879440308,1.9364194869995117
1684099784276208000,2.1452080078125,-0.3934013843536377,1.0117818117141724,3.02890682220459
1684099784286204200,2.1552041015625,-0.49076563119888306,-0.16481180489063263,3.214634418487549
1684099784296200000,2.165199951171875,1.95399808883667,-0.9441837668418884,2.2660117149353027
1684099784306196200,2.1751962890625,1.4805933237075806,0.6798222661018372,1.161319375038147
1684099784316192300,2.185192138671875,0.8686215281486511,1.7600526809692383,0.2171347290277481
1684099784326188000,2.19518798828125,0.060735348612070084,1.0054837465286255,-0.11796662211418152
1684099784336184000,2.20518408203125,-1.3788188695907593,-0.29479023814201355,0.3847809135913849
1684099784346180000,2.21518017578125,-2.7787537574768066,-0.8368992805480957,0.45106014609336853
1684099784356176100,2.225176025390625,-3.8767480850219727,-0.7094318866729736,0.3137342631816864
1684099784366171100,2.235171142578125,-4.993473052978516,1.0559176206588745,-0.4978443682193756
1684099784376167200,2.245167236328125,-5.308036804199219,2.070624828338623,0.09712953120470047
1684099784386163000,2.255162841796875,-5.16531229019165,0.8322956562042236,1.0527652502059937
1684099784396159200,2.2651591796875,-4.599681377410889,0.8551072478294373,2.2346408367156982
1684099784406155000,2.275155029296875,-2.6828529834747314,4.0882697105407715,4.803533554077148
1684099784416151000,2.285151123046875,-0.4233160614967346,2.342634439468384,3.1177315711975098
1684099784426147000,2.29514697265625,0.1328008621931076,1.152577519416809,0.8941004872322083
1684099784436143000,2.30514306640625,0.3887183964252472,3.475773811340332,0.3901326656341553
1684099784446139100,2.31513916015625,0.47371289134025574,6.608252048492432,0.5495437979698181
1684099784456135000,2.325135009765625,-0.1989286243915558,7.223928451538086,0.7779804468154907
1684099784466131200,2.335131103515625,-1.85966157913208,5.37445068359375,2.2147011756896973
1684099784476127200,2.345127197265625,-3.581000804901123,1.8857426643371582,2.9102044105529785
1684099784486123000,2.355123046875,-3.7547149658203125,0.48911768198013306,3.0285255908966064
1684099784496118000,2.365117919921875,-2.687986135482788,0.38090279698371887,2.81886625289917
1684099784506114000,2.375114013671875,-1.3878483772277832,-0.5071321129798889,3.058183193206787
1684099784516110000,2.385110107421875,-0.6365631222724915,-1.6911836862564087,3.0129196643829346
1684099784526106000,2.395106201171875,-0.0932619646191597,-1.7346251010894775,2.0203769207000732
1684099784536102100,2.40510205078125,-0.031624164432287216,-1.3909486532211304,1.0032219886779785
1684099784546098000,2.415097900390625,-0.01720442995429039,-1.2413008213043213,-0.13015875220298767
1684099784556094200,2.42509423828125,-0.2594735324382782,-0.4832023084163666,-0.8225057721138
1684099784566090000,2.435090087890625,-0.862598180770874,0.5937104821205139,-1.6089104413986206
1684099784576086000,2.4450859375,-1.484423279762268,1.5948760509490967,-2.009829044342041
1684099784586082300,2.455082275390625,-1.6076054573059082,2.2487683296203613,-2.1898276805877686
1684099784596078000,2.465078125,-1.2617998123168945,2.5374815464019775,-2.2057645320892334
1684099784606074000,2.47507421875,-0.7922394275665283,2.321404218673706,-2.1856377124786377
1684099784616069000,2.485069091796875,-0.4821787476539612,1.758801817893982,-2.3106064796447754
1684099784626065000,2.49506494140625,-0.33908411860466003,1.053755521774292,-2.5826900005340576
1684099784636061200,2.505061279296875,-0.774271547794342,1.433756709098816,-1.4310020208358765
1684099784646057200,2.51505712890625,-1.1522488594055176,1.6685024499893188,0.027009593322873116
1684099784656053000,2.525052978515625,-1.4040918350219727,0.723677396774292,1.4934587478637695
1684099784666049000,2.535049072265625,-1.5367497205734253,-0.5000750422477722,2.673938274383545
1684099784676045000,2.545045166015625,-1.6613075733184814,-1.4277379512786865,3.272143602371216
1684099784686041000,2.555041015625,-1.4371109008789062,-1.6490108966827393,3.173954725265503
1684099784696037000,2.565037109375,-0.12477517873048782,-2.2163844108581543,1.695996642112732
1684099784706033000,2.575032958984375,1.3106549978256226,-2.6202194690704346,-0.45124247670173645
1684099784716029200,2.585029296875,1.245091199874878,-1.4110777378082275,-0.8516830801963806
1684099784726024200,2.595024169921875,0.7983750104904175,-1.1186647415161133,-0.4914434552192688
1684099784736020000,2.60502001953125,0.6958504915237427,-2.0731706619262695,-0.917313814163208
1684099784746016000,2.61501611328125,0.4614284634590149,-2.569770336151123,-1.387953519821167
1684099784756012000,2.625011962890625,0.014561755582690239,-1.8166853189468384,-0.9565149545669556
1684099784766008000,2.635008056640625,-0.3702112138271332,-0.38495388627052307,-0.1972140669822693
1684099784776004000,2.645004150390625,-0.38513317704200745,0.7602437138557434,0.20361565053462982
1684099784786000100,2.655000244140625,-0.18610438704490662,1.0052490234375,0.2768518626689911
1684099784795996000,2.664995849609375,-0.018463468179106712,0.7337894439697266,0.1621716171503067
1684099784805992200,2.6749921875,-0.009077372029423714,0.3811489939689636,-0.004901877138763666
1684099784815988000,2.684988037109375,-0.036828309297561646,0.09771915525197983,-0.08014123886823654
1684099784825984000,2.69498388671875,0.048208560794591904,-0.1860746145248413,-0.04655357077717781
1684099784835980300,2.704980224609375,0.13161210715770721,-0.4440310597419739,0.021064087748527527
1684099784845975000,2.71497509765625,0.13688144087791443,-0.6238427758216858,0.06195467337965965
1684099784855971000,2.72497119140625,0.10337302088737488,-0.5980375409126282,0.08194995671510696
1684099784865967000,2.734967041015625,0.04489164426922798,-0.43931394815444946,0.057728007435798645
1684099784875963000,2.744962890625,-0.0018465679604560137,-0.3285677134990692,0.007187866605818272
1684099784885959200,2.754959228515625,-0.039459291845560074,-0.23895446956157684,-0.024807177484035492
1684099784895955200,2.764955078125,-0.05355753377079964,-0.09781359881162643,-0.035411618649959564
1684099784905951000,2.774950927734375,-0.0229980256408453,0.07041455805301666,-0.06354604661464691
1684099784915947000,2.784947021484375,0.01809081993997097,0.20306368172168732,-0.07397259026765823
1684099784925943000,2.794943115234375,0.07965371012687683,0.24905292689800262,-0.10271129757165909
1684099784935939000,2.80493896484375,0.1012817770242691,0.20563435554504395,-0.1189507246017456
1684099784945935000,2.81493505859375,0.09996387362480164,0.1258085072040558,-0.07483191043138504
1684099784955930000,2.82493017578125,0.08709334582090378,-0.02315380796790123,-0.03307433798909187
1684099784965926100,2.834926025390625,0.06360772997140884,-0.25049108266830444,-0.002525484189391136
1684099784975922200,2.844922119140625,0.0014516820665448904,-0.2608742415904999,0.03910025581717491
1684099784985918000,2.85491796875,-0.04710548743605614,-0.1013496145606041,0.04945175349712372
1684099784995914000,2.8649140625,-0.07120389491319656,0.142230823636055,0.07201751321554184
1684099785005910300,2.87491015625,-0.0463673435151577,0.3085758090019226,0.10960854589939117
1684099785015906000,2.884906005859375,0.03295411169528961,0.3589950203895569,0.08753067255020142
1684099785025902000,2.894902099609375,0.09057902544736862,0.232430100440979,0.0378052219748497
1684099785035897900,2.90489794921875,0.08987701684236526,0.09083355218172073,0.028629301115870476
1684099785045894100,2.91489404296875,0.05784652754664421,0.2438296675682068,0.022833161056041718
1684099785055890200,2.92489013671875,-0.015981357544660568,0.6400555968284607,-0.04531420022249222
1684099785065885200,2.93488525390625,-0.09974095225334167,1.0839636325836182,-0.03203747794032097
1684099785075881000,2.944880859375,-0.15227101743221283,1.417667031288147,0.12499075382947922
1684099785085877200,2.954877197265625,-0.1397242397069931,1.571247935295105,0.22503136098384857
1684099785095873000,2.964873046875,-0.12588591873645782,1.4650205373764038,0.18216457962989807
1684099785105869000,2.974869140625,-0.10360658168792725,1.1275839805603027,0.05266817659139633
1684099785115865000,2.984864990234375,-0.04200633987784386,0.6428900361061096,-0.0717398002743721
1684099785125861000,2.994861083984375,0.00584827596321702,0.09316501021385193,-0.14793935418128967
1684099785135857200,3.004857177734375,0.04969535768032074,-0.3798965513706207,-0.13524752855300903
1684099785145853000,3.01485302734375,0.09877943992614746,-0.6119714379310608,-0.06848204880952835
1684099785155849000,3.024848876953125,0.13372038304805756,-0.5171591639518738,0.012722796760499477
1684099785165845200,3.03484521484375,0.12169121950864792,-0.18592754006385803,0.09398288279771805
1684099785175840300,3.04484033203125,0.09184863418340683,0.10017718374729156,0.0897604450583458
1684099785185836000,3.0548359375,0.03491983935236931,0.08642622083425522,0.02166874334216118
1684099785195832000,3.06483203125,-0.0272322166711092,-0.06839531660079956,-0.012440756894648075
1684099785205827800,3.074827880859375,-0.03555035591125488,-0.08931970596313477,0.010522793047130108
1684099785215824100,3.08482421875,-0.010302525945007801,0.13576054573059082,0.0583273321390152
1684099785225820200,3.094820068359375,0.043227918446063995,0.5202220678329468,0.09029322862625122
1684099785235816000,3.10481591796875,0.1445726454257965,0.8983946442604065,0.04966191202402115
1684099785245812200,3.114812255859375,0.2355838418006897,1.1410796642303467,-0.03264941647648811
1684099785255808000,3.12480810546875,0.24173787236213684,1.0623995065689087,-0.08012904971837997
1684099785265804000,3.134803955078125,0.23993167281150818,0.7162692546844482,-0.10378694534301758
1684099785275800000,3.144800048828125,0.3000490963459015,0.16466176509857178,-0.09852240979671478
1684099785285796000,3.154796142578125,0.31808632612228394,-0.3847821354866028,-0.046347476541996
1684099785295791000,3.164791015625,0.2787618339061737,-0.8031420707702637,-0.02178381010890007
1684099785305787100,3.174787109375,0.2424980103969574,-1.0763267278671265,-0.007392914034426212
1684099785315783000,3.184782958984375,0.27727994322776794,-1.0705498456954956,0.11876741796731949
1684099785325779000,3.194779052734375,0.26066988706588745,-1.0096136331558228,0.11911383271217346
1684099785335775200,3.204775146484375,0.20474989712238312,-0.6478389501571655,0.056719161570072174
1684099785345771000,3.21477099609375,0.20931248366832733,-0.08403220772743225,-0.043321240693330765
1684099785355767000,3.22476708984375,0.2682282626628876,0.312136709690094,-0.22507984936237335
1684099785365763000,3.23476318359375,0.3297329545021057,0.2231893241405487,-0.33575254678726196
1684099785375759000,3.244759033203125,0.37817665934562683,-0.11026027798652649,-0.2530369162559509
1684099785385755100,3.254755126953125,0.45859095454216003,-0.31062448024749756,-0.0864260345697403
1684099785395750100,3.264750244140625,0.5447836518287659,-0.24175885319709778,0.05121039226651192
1684099785405746000,3.274745849609375,0.57194584608078,0.026263806968927383,0.14826008677482605
1684099785415742200,3.2847421875,0.5682965517044067,0.11120213568210602,0.26350119709968567
1684099785425738000,3.294738037109375,0.5278840065002441,-0.020120400935411453,0.3392517566680908
1684099785435734000,3.304734130859375,0.4349503517150879,-0.08912316709756851,0.3246256709098816
1684099785445730000,3.31472998046875,0.3880968689918518,0.08059655874967575,0.25119733810424805
1684099785455726000,3.32472607421875,0.3547796607017517,0.3258952498435974,0.14108681678771973
1684099785465722000,3.33472216796875,0.3723684847354889,0.3945827782154083,0.05287723243236542
1684099785475718100,3.34471826171875,0.45100364089012146,0.4422544240951538,0.02274409681558609
1684099785485714000,3.3547138671875,0.5128374695777893,0.5274737477302551,-0.008993890136480331
1684099785495710200,3.364710205078125,0.5540860891342163,0.5555797219276428,-0.043196070939302444
1684099785505705200,3.374705322265625,0.5990854501724243,0.6230490207672119,-0.04807936027646065
1684099785515701000,3.384700927734375,0.6643102169036865,0.8181479573249817,-0.022679990157485008
1684099785525697000,3.394697021484375,0.7444131374359131,1.1187043190002441,0.004497061483561993
1684099785535693000,3.404693115234375,0.8460588455200195,1.3098961114883423,-0.020656494423747063
1684099785545689000,3.414689208984375,0.8981271386146545,1.4021031856536865,-0.11298810690641403
1684099785555685000,3.42468505859375,0.8356983661651611,1.5111417770385742,-0.19388243556022644
1684099785565681000,3.434680908203125,0.7418614029884338,1.56493079662323,-0.2486482858657837
1684099785575677200,3.44467724609375,0.6628920435905457,1.542117714881897,-0.245879665017128
1684099785585673200,3.454673095703125,0.5424307584762573,1.4232008457183838,-0.17987215518951416
1684099785595669000,3.4646689453125,0.4059312641620636,1.244004487991333,-0.09848595410585403
1684099785605665000,3.4746650390625,0.29559940099716187,1.0983349084854126,-0.033010367304086685
1684099785615660000,3.484659912109375,0.23431900143623352,1.0642064809799194,-0.06041242927312851
1684099785625656000,3.494656005859375,0.20521757006645203,1.21714448928833,-0.1326000988483429
1684099785635652000,3.504652099609375,0.23547373712062836,1.5284658670425415,-0.17520907521247864
1684099785645648100,3.514648193359375,0.4125223159790039,1.8374384641647339,-0.18927177786827087
1684099785655644200,3.52464404296875,0.4832864999771118,1.9241811037063599,-0.15728694200515747
1684099785665640200,3.53464013671875,0.3430958092212677,1.5864123106002808,-0.05450674891471863
1684099785675636000,3.544635986328125,0.21470189094543457,0.9892237782478333,0.012950056232511997
1684099785685632000,3.554632080078125,0.1163250058889389,0.6419686675071716,0.009043966419994831
1684099785695628300,3.564628173828125,-0.016993099823594093,0.5674172043800354,-0.08956543356180191
1684099785705624000,3.5746240234375,-0.16302607953548431,0.7376429438591003,-0.2958492040634155
1684099785715620000,3.5846201171875,-0.22584205865859985,0.9731268286705017,-0.5453404784202576
1684099785725615900,3.594615966796875,-0.1460627019405365,1.0751975774765015,-0.7075913548469543
1684099785735611000,3.60461083984375,0.023074394091963768,0.8710891008377075,-0.691245436668396
1684099785745607200,3.614607177734375,0.15125951170921326,0.5056240558624268,-0.5340431928634644
1684099785755603200,3.624603271484375,0.14080554246902466,0.2644934058189392,-0.3316757082939148
1684099785765599200,3.63459912109375,0.07351844757795334,0.11719164997339249,-0.19528645277023315
1684099785775595300,3.64459521484375,-0.04700130596756935,0.08002670854330063,-0.16394583880901337
1684099785785591000,3.654591064453125,-0.11413155496120453,0.1610826700925827,-0.20618325471878052
1684099785795587300,3.66458740234375,-0.1379641741514206,0.27775388956069946,-0.2546328008174896
1684099785805583400,3.674583251953125,-0.18875393271446228,0.3937916159629822,-0.27514567971229553
1684099785815579100,3.6845791015625,-0.26799362897872925,0.4398414194583893,-0.28688594698905945
1684099785825575200,3.6945751953125,-0.3345631957054138,0.4379642605781555,-0.2790769934654236
1684099785835571200,3.7045712890625,-0.3769513964653015,0.47403091192245483,-0.28335216641426086
1684099785845566200,3.714566162109375,-0.31582045555114746,0.5685483813285828,-0.3165799677371979
1684099785855562200,3.724562255859375,-0.1420140266418457,0.623296856880188,-0.37635675072669983
1684099785865558300,3.734558349609375,0.020854732021689415,0.40594482421875,-0.43744760751724243
1684099785875554300,3.74455419921875,0.054134123027324677,-0.009096314199268818,-0.4670574367046356
1684099785885550300,3.75455029296875,0.01431255228817463,-0.3696270287036896,-0.44950470328330994
1684099785895546000,3.764546142578125,-0.05746736377477646,-0.6262468099594116,-0.3918781578540802
1684099785905542100,3.774542236328125,-0.13482391834259033,-0.7054207921028137,-0.3260306119918823
1684099785915538400,3.784538330078125,-0.25259047746658325,-0.508451521396637,-0.3000701367855072
1684099785925534200,3.7945341796875,-0.3739553689956665,0.01259906031191349,-0.3228106200695038
1684099785935530200,3.8045302734375,-0.49253422021865845,0.6899112462997437,-0.36302489042282104
1684099785945526000,3.814526123046875,-0.5786213874816895,1.2914040088653564,-0.3794794976711273
1684099785955521300,3.824521240234375,-0.6244229078292847,1.6175509691238403,-0.37887975573539734
1684099785965517300,3.834517333984375,-0.6225519180297852,1.6723146438598633,-0.3921660780906677
1684099785975513300,3.844513427734375,-0.6242853403091431,1.4948588609695435,-0.5077645778656006
1684099785985509000,3.854509033203125,-0.5393348336219788,1.1501392126083374,-0.5876542329788208
1684099785995505400,3.86450537109375,-0.3700736165046692,0.5321207046508789,-0.540713369846344
1684099786005501200,3.874501220703125,-0.2910092771053314,-0.1511055827140808,-0.47460657358169556
1684099786015497200,3.884497314453125,-0.2753016948699951,-0.6351457834243774,-0.4220176935195923
1684099786025493200,3.8944931640625,-0.20463994145393372,-0.8281375765800476,-0.3566462993621826
1684099786035489300,3.9044892578125,-0.14814791083335876,-0.8835361003875732,-0.2804522216320038
1684099786045485300,3.9144853515625,-0.10078072547912598,-0.811352550983429,-0.20415744185447693
1684099786055481000,3.924481201171875,-0.11470586061477661,-0.5942361950874329,-0.09998416155576706
1684099786065476000,3.93447607421875,-0.23290860652923584,-0.2205495834350586,-0.02029101923108101
1684099786075472100,3.94447216796875,-0.3413650393486023,0.056025028228759766,-0.016784435138106346
1684099786085468400,3.954468505859375,-0.4040047228336334,0.23476427793502808,-0.015392255038022995
1684099786095464200,3.964464111328125,-0.4078817367553711,0.42349398136138916,0.012301690876483917
1684099786105460200,3.974460205078125,-0.3895488381385803,0.5463487505912781,0.07663676887750626
1684099786115456300,3.984456298828125,-0.35635998845100403,0.4974091649055481,0.13638025522232056
1684099786125452300,3.994452392578125,-0.29685142636299133,0.2173389494419098,0.10438628494739532
1684099786135448300,4.0044482421875,-0.22919940948486328,-0.1635197252035141,0.030667589977383614
1684099786145444000,4.014444091796875,-0.18415415287017822,-0.4650822877883911,-0.03545008599758148
1684099786155440400,4.0244404296875,-0.1676739752292633,-0.7025672793388367,-0.10009139776229858
1684099786165436200,4.034436279296875,-0.16525998711585999,-0.9682960510253906,-0.13914163410663605
1684099786175432200,4.04443212890625,-0.23315328359603882,-1.0296045541763306,-0.19694741070270538
1684099786185427200,4.05442724609375,-0.28676295280456543,-0.74233078956604,-0.2700178623199463
1684099786195423200,4.06442333984375,-0.29064637422561646,-0.3310242295265198,-0.2712610363960266
1684099786205419300,4.074419189453125,-0.24484647810459137,-0.08300629258155823,-0.2188345044851303
1684099786215415300,4.084415283203125,-0.1803058385848999,-0.09127381443977356,-0.1583799421787262
1684099786225411000,4.0944111328125,-0.14311186969280243,-0.22599588334560394,-0.1557496190071106
1684099786235407000,4.104406982421875,-0.06682323664426804,-0.323554128408432,-0.1293230801820755
1684099786245403400,4.1144033203125,-0.030116356909275055,-0.6788836121559143,-0.09808594733476639
1684099786255399200,4.124399169921875,-0.05868169292807579,-1.0492515563964844,-0.15570876002311707
1684099786265395200,4.134395263671875,-0.13585953414440155,-1.2945835590362549,-0.2715252637863159
1684099786275391200,4.14439111328125,-0.21108877658843994,-1.2727097272872925,-0.3539154827594757
1684099786285387300,4.15438720703125,-0.218934565782547,-0.9501758813858032,-0.35346633195877075
1684099786295382300,4.16438232421875,-0.18583893775939941,-0.5502630472183228,-0.24480564892292023
1684099786305378300,4.17437841796875,-0.10812702029943466,-0.4046715497970581,-0.11368535459041595
1684099786315374000,4.1843740234375,-0.014258584007620811,-0.5113034248352051,-0.03237931430339813
1684099786325370400,4.194370361328125,0.04284645617008209,-0.6639220118522644,0.019551467150449753
1684099786335366100,4.2043662109375,0.05981878191232681,-0.940779447555542,0.02495155856013298
1684099786345362200,4.214362060546875,0.05313072353601456,-1.2960010766983032,-0.048399291932582855
1684099786355358200,4.224358154296875,0.026485266163945198,-1.5688611268997192,-0.157393679022789
1684099786365354200,4.234354248046875,-0.005243975669145584,-1.705220341682434,-0.26918256282806396
1684099786375350300,4.244350341796875,-0.05811890959739685,-1.6827837228775024,-0.34361788630485535
1684099786385346000,4.254345947265625,-0.13504855334758759,-1.1767799854278564,-0.31236693263053894
1684099786395342000,4.264342041015625,-0.08084496855735779,-0.1785808801651001,-0.08962919563055038
1684099786405338400,4.27433837890625,-0.0023539941757917404,0.8649435043334961,0.24191521108150482
1684099786415333400,4.28433349609375,0.04631980136036873,1.6120370626449585,0.4889204502105713
1684099786425329200,4.2943291015625,0.0351184718310833,2.000437021255493,0.5168287754058838
1684099786435325200,4.3043251953125,-0.0007729495409876108,2.060912609100342,0.3478989005088806
1684099786445321200,4.3143212890625,-0.033708326518535614,1.7832030057907104,0.06609737128019333
1684099786455317200,4.324317138671875,-0.13237231969833374,1.3075894117355347,-0.19975215196609497
1684099786465313300,4.334313232421875,-0.37707915902137756,0.7174682021141052,-0.36726048588752747
1684099786475309000,4.34430908203125,-0.5601704120635986,-0.0405459851026535,-0.3685134947299957
1684099786485305300,4.354305419921875,-0.4790078103542328,-0.6764110922813416,-0.3021911084651947
1684099786495301000,4.364301025390625,-0.25718405842781067,-1.0890178680419922,-0.28335776925086975
1684099786505297200,4.374297119140625,-0.016640199348330498,-1.5008448362350464,-0.28850439190864563
1684099786515293200,4.384293212890625,0.27657997608184814,-2.0684690475463867,-0.19290144741535187
1684099786525289200,4.394289306640625,0.5624444484710693,-2.388183116912842,0.13235560059547424
1684099786535285200,4.40428515625,0.6953039765357971,-2.206164598464966,0.4872242212295532
1684099786545280300,4.4142802734375,0.7442752718925476,-1.6085400581359863,0.6775069236755371
1684099786555276000,4.424276123046875,0.7636157274246216,-0.7315234541893005,0.6997743844985962
1684099786565272300,4.434272216796875,0.8039527535438538,0.4180765748023987,0.5642613172531128
1684099786575268400,4.444268310546875,0.7459443211555481,1.0981805324554443,0.2957172095775604
1684099786585264000,4.45426416015625,0.4241861402988434,0.7454807162284851,0.04205429181456566
1684099786595260200,4.46426025390625,-0.03667095676064491,-0.06801801919937134,-0.09033410996198654
1684099786605256200,4.474256103515625,-0.1444244086742401,-0.19258253276348114,-0.06826331466436386
1684099786615252200,4.484252197265625,-0.07924246042966843,0.11119654029607773,0.02117655798792839
1684099786625248300,4.494248291015625,-0.06692401319742203,0.3407689929008484,0.11388944834470749
1684099786635244000,4.504244140625,-0.07391427457332611,0.4857245981693268,0.19950687885284424
1684099786645240300,4.514240234375,-0.08314257860183716,0.5314968228340149,0.2134513407945633
1684099786655236400,4.524236328125,-0.19889874756336212,0.4558470547199249,0.21801839768886566
1684099786665231000,4.534231201171875,-0.23965482413768768,0.2464871108531952,0.1834409236907959
1684099786675227100,4.54422705078125,-0.1120675727725029,-0.07158086448907852,0.08470741659402847
1684099786685223400,4.554223388671875,0.078766830265522,-0.3148465156555176,0.010204955004155636
1684099786695219200,4.56421923828125,0.17158252000808716,-0.6071175336837769,-0.03587039187550545
1684099786705215200,4.57421533203125,0.21247047185897827,-0.8122341632843018,-0.010687957517802715
1684099786715211300,4.584211181640625,0.20376619696617126,-0.8791316747665405,0.061135899275541306
1684099786725207300,4.594207275390625,0.16134785115718842,-0.8171813488006592,0.11206864565610886
1684099786735203300,4.604203369140625,0.09538374841213226,-0.5466305613517761,0.14745061099529266
1684099786745199000,4.61419921875,0.015187163837254047,-0.10002316534519196,0.18239201605319977
1684099786755195600,4.624195556640625,-0.06062637269496918,0.35655477643013,0.21280691027641296
1684099786765191700,4.634191650390625,-0.11643175035715103,0.6191017031669617,0.23696401715278625
1684099786775187700,4.644187744140625,-0.17341087758541107,0.6119950413703918,0.23275408148765564
1684099786785182700,4.6541826171875,-0.2079796940088272,0.43122678995132446,0.21148356795310974
1684099786795178800,4.6641787109375,-0.2161814272403717,0.18083320558071136,0.2059580385684967
1684099786805174500,4.674174560546875,-0.20543202757835388,-0.05560244247317314,0.22289682924747467
1684099786815170800,4.6841708984375,-0.18663863837718964,-0.186745285987854,0.264923632144928
1684099786825166600,4.69416650390625,-0.16289974749088287,-0.2116495668888092,0.3034960627555847
1684099786835162600,4.70416259765625,-0.14330314099788666,-0.17142492532730103,0.33303213119506836
1684099786845158700,4.71415869140625,-0.13240176439285278,-0.08197519183158875,0.34149670600891113
1684099786855154700,4.72415478515625,-0.1161668673157692,-0.012884004972875118,0.33295756578445435
1684099786865150700,4.734150634765625,-0.09734140336513519,-0.0024541341699659824,0.32912468910217285
1684099786875146800,4.744146728515625,-0.08023698627948761,-0.0549522303044796,0.3409493863582611
1684099786885142800,4.754142822265625,-0.06860001385211945,-0.13113334774971008,0.37954962253570557
1684099786895138800,4.764138916015625,-0.06238739192485809,-0.18934552371501923,0.41277655959129333
1684099786905133800,4.7741337890625,-0.06725095957517624,-0.21358761191368103,0.4204038679599762
1684099786915129600,4.784129638671875,-0.07863064855337143,-0.18973954021930695,0.43586111068725586
1684099786925125600,4.794125732421875,-0.08112357556819916,-0.12341058254241943,0.45951271057128906
1684099786935121700,4.80412158203125,-0.076716847717762,-0.04331574961543083,0.488246351480484
1684099786945117700,4.81411767578125,-0.07788170874118805,-0.00711806258186698,0.5080509781837463
1684099786955113700,4.82411376953125,-0.09298370033502579,-0.04139747470617294,0.4959178566932678
1684099786965109500,4.834109619140625,-0.1181679368019104,-0.10905507206916809,0.4754554033279419
1684099786975105800,4.844105712890625,-0.1509743481874466,-0.1656121015548706,0.4497750699520111
1684099786985101800,4.854101806640625,-0.19234763085842133,-0.21647155284881592,0.42796510457992554
1684099786995097600,4.86409765625,-0.21761277318000793,-0.19067910313606262,0.42613551020622253
1684099787005093600,4.87409375,-0.22806747257709503,-0.015769533812999725,0.4679620563983917
1684099787015089700,4.884089599609375,-0.23390617966651917,0.1997758001089096,0.5282533764839172
1684099787025085700,4.894085693359375,-0.24460753798484802,0.3284749984741211,0.556307315826416
1684099787035080700,4.904080810546875,-0.25195011496543884,0.41060101985931396,0.5253432989120483
1684099787045076700,4.91407666015625,-0.2422482669353485,0.4052906632423401,0.4861740469932556
1684099787055072800,4.92407275390625,-0.21465392410755157,0.2551019787788391,0.4770662784576416
1684099787065068800,4.93406884765625,-0.19441530108451843,0.055341992527246475,0.49323397874832153
1684099787075064600,4.944064697265625,-0.16724547743797302,-0.09347331523895264,0.5324572920799255
1684099787085060600,4.954060546875,-0.14092887938022614,-0.15494607388973236,0.584091067314148
1684099787095057000,4.964056884765625,-0.1309223175048828,-0.1612822711467743,0.6241077184677124
1684099787105052700,4.974052734375,-0.15688234567642212,-0.12235496193170547,0.6117752194404602
1684099787115048700,4.984048583984375,-0.22081258893013,-0.018250934779644012,0.557632327079773
1684099787125044500,4.99404443359375,-0.28773632645606995,0.15165787935256958,0.5022561550140381
1684099787135040800,5.004040771484375,-0.3255675733089447,0.2862548232078552,0.4812576472759247
1684099787145036800,5.014036865234375,-0.3316759765148163,0.30752864480018616,0.4918864965438843
1684099787155031800,5.02403173828125,-0.3171471059322357,0.27196717262268066,0.537783145904541
1684099787165027600,5.034027587890625,-0.2776833176612854,0.21543703973293304,0.5914080142974854
1684099787175023900,5.04402392578125,-0.21333496272563934,0.10194111615419388,0.6523443460464478
1684099787185019600,5.05401953125,-0.15770922601222992,0.0006889961659908295,0.6786210536956787
1684099787195015700,5.064015625,-0.14289778470993042,-0.05660758540034294,0.6353076696395874
1684099787205011700,5.07401171875,-0.16677804291248322,-0.07117614150047302,0.5811150670051575
1684099787215007700,5.0840078125,-0.1970435231924057,-0.0194729994982481,0.534609317779541
1684099787225003800,5.094003662109375,-0.20782305300235748,0.11370636522769928,0.47431790828704834
1684099787234999600,5.10399951171875,-0.18964031338691711,0.12282636016607285,0.46243730187416077
1684099787244995600,5.11399560546875,-0.147902712225914,-0.018030766397714615,0.5057612061500549
1684099787254992000,5.123991943359375,-0.10633981972932816,-0.1659882664680481,0.5518583655357361
1684099787264987600,5.133987548828125,-0.10842686146497726,-0.2666647434234619,0.5807981491088867
1684099787274983700,5.143983642578125,-0.14799930155277252,-0.2238357961177826,0.6043264269828796
1684099787284979500,5.1539794921875,-0.2138342410326004,-0.013713848777115345,0.5805160403251648
1684099787294974700,5.163974609375,-0.2692684829235077,0.261367529630661,0.5422282814979553
1684099787304970800,5.173970703125,-0.29013559222221375,0.41780126094818115,0.5134871006011963
1684099787314966800,5.183966796875,-0.2642539143562317,0.43305930495262146,0.46908044815063477
1684099787324962600,5.193962646484375,-0.1920364946126938,0.30921533703804016,0.45208150148391724
1684099787334958800,5.203958740234375,-0.1231120228767395,0.08675723522901535,0.4533856511116028
1684099787344954600,5.21395458984375,-0.0880393236875534,-0.07259414345026016,0.4299756586551666
1684099787354950700,5.22395068359375,-0.10067123174667358,-0.06272739917039871,0.4059654176235199
1684099787364946700,5.23394677734375,-0.12311427295207977,0.03471047431230545,0.4051336646080017
1684099787374942700,5.243942626953125,-0.14256493747234344,0.11761042475700378,0.4167700707912445
1684099787384938800,5.253938720703125,-0.15215985476970673,0.1600511521100998,0.4210142195224762
1684099787394934500,5.2639345703125,-0.1458446979522705,0.1407879739999771,0.4263487756252289
1684099787404930600,5.2739306640625,-0.1404961496591568,0.09881050139665604,0.3943168520927429
1684099787414926800,5.2839267578125,-0.13567794859409332,0.11177823692560196,0.37350213527679443
1684099787424921900,5.293921875,-0.13447901606559753,0.11694842576980591,0.34334588050842285
1684099787434917600,5.303917724609375,-0.12497260421514511,0.08023488521575928,0.2980271577835083
1684099787444913700,5.31391357421875,-0.11245854198932648,0.04061243683099747,0.2848206162452698
1684099787454909700,5.32390966796875,-0.09661619365215302,0.04010297730565071,0.31446266174316406
1684099787464905700,5.33390576171875,-0.08896258473396301,0.06671500951051712,0.347807914018631
1684099787474901800,5.34390185546875,-0.0923120453953743,0.04533515125513077,0.34591999650001526
1684099787484897500,5.3538974609375,-0.11460243910551071,-0.004058356862515211,0.32611390948295593
1684099787494893800,5.363893798828125,-0.13943696022033691,0.015684189274907112,0.30199021100997925
1684099787504889600,5.3738896484375,-0.15132296085357666,0.09935805201530457,0.273712158203125
1684099787514885600,5.3838857421875,-0.15529613196849823,0.14860256016254425,0.24814023077487946
1684099787524881700,5.393881591796875,-0.1376650631427765,0.15025630593299866,0.26797300577163696
1684099787534877700,5.403877685546875,-0.11170830577611923,0.14448630809783936,0.27753108739852905
1684099787544873700,5.413873779296875,-0.08707994967699051,0.12858250737190247,0.2566922903060913
1684099787554869800,5.423869873046875,-0.05977455899119377,0.09906216710805893,0.24865512549877167
1684099787564864500,5.433864501953125,-0.0479600615799427,0.04516797885298729,0.23231661319732666
1684099787574860500,5.443860595703125,-0.04735951870679855,-0.03405866399407387,0.19339026510715485
1684099787584856800,5.45385693359375,-0.04421408846974373,-0.0843537226319313,0.16781316697597504
1684099787594852600,5.4638525390625,-0.043463874608278275,-0.09729509055614471,0.1883959323167801
1684099787604848600,5.4738486328125,-0.05092620849609375,-0.03072698786854744,0.23038770258426666
1684099787614844700,5.4838447265625,-0.07789523899555206,0.10877897590398788,0.24905912578105927
1684099787624840700,5.4938408203125,-0.11344161629676819,0.21937179565429688,0.22217176854610443
1684099787634836700,5.503836669921875,-0.14139628410339355,0.25848403573036194,0.18711870908737183
1684099787644832500,5.51383251953125,-0.13266445696353912,0.2570851743221283,0.14455130696296692
1684099787654828800,5.523828857421875,-0.10100133717060089,0.23240937292575836,0.11941719800233841
1684099787664824800,5.533824951171875,-0.0649300366640091,0.17358426749706268,0.09173870086669922
1684099787674820600,5.543820556640625,-0.022671794518828392,0.08085380494594574,0.06900861859321594
1684099787684816600,5.553816650390625,0.014433092437684536,-0.013205518014729023,0.07560932636260986
1684099787694811600,5.563811767578125,0.03001098893582821,-0.07614000886678696,0.09898868203163147
1684099787704807700,5.5738076171875,0.012376315891742706,-0.12256110459566116,0.10326710343360901
1684099787714803700,5.5838037109375,-0.00929648894816637,-0.12119517475366592,0.09236172586679459
1684099787724799700,5.5937998046875,-0.031009037047624588,-0.06524521112442017,0.0826958417892456
1684099787734795500,5.60379541015625,-0.07015138119459152,0.04513668268918991,0.06347154825925827
1684099787744791800,5.613791748046875,-0.10198547691106796,0.15952050685882568,0.011668805032968521
1684099787754787300,5.623787353515625,-0.09814546257257462,0.221750870347023,-0.037829771637916565
1684099787764783400,5.633783447265625,-0.07258769869804382,0.219793438911438,-0.06154394894838333
1684099787774779400,5.643779296875,-0.04564662650227547,0.1458643525838852,-0.0853281021118164
1684099787784775200,5.653775146484375,-0.014258787967264652,0.036290258169174194,-0.09591308236122131
1684099787794771200,5.663771240234375,0.020490404218435287,-0.06783027946949005,-0.09148290753364563
1684099787804767500,5.673767578125,0.04519796371459961,-0.1213471069931984,-0.0918303057551384
1684099787814763300,5.68376318359375,0.05258210748434067,-0.10285864025354385,-0.09573262929916382
1684099787824758300,5.69375830078125,0.048347245901823044,-0.0012071095407009125,-0.10998524725437164
1684099787834754300,5.70375439453125,0.03297015652060509,0.1049286499619484,-0.13016508519649506
1684099787844750300,5.713750244140625,0.02603648602962494,0.15557684004306793,-0.1586655080318451
1684099787854746400,5.723746337890625,0.01823236048221588,0.1624019891023636,-0.16859909892082214
1684099787864742400,5.733742431640625,0.00836990587413311,0.14655464887619019,-0.16174601018428802
1684099787874738200,5.74373828125,-0.0040026078931987286,0.125836580991745,-0.1647130250930786
1684099787884734500,5.753734375,-0.018206311389803886,0.11831235885620117,-0.17907892167568207
1684099787894730200,5.763730224609375,-0.023781107738614082,0.16011546552181244,-0.18299031257629395
1684099787904726300,5.773726318359375,-0.017358150333166122,0.20139072835445404,-0.19162486493587494
1684099787914722300,5.783722412109375,0.008185292594134808,0.20135290920734406,-0.2096502035856247
1684099787924718300,5.79371826171875,0.05484840273857117,0.18256857991218567,-0.2219899594783783
1684099787934714400,5.80371435546875,0.09630130976438522,0.16823810338974,-0.2228328436613083
1684099787944710100,5.813710205078125,0.12230673432350159,0.14646323025226593,-0.23902247846126556
1684099787954706400,5.82370654296875,0.1239086240530014,0.06937936693429947,-0.2848227322101593
1684099787964701400,5.833701416015625,0.10410057753324509,-0.0679512545466423,-0.32315871119499207
1684099787974697500,5.843697509765625,0.07414241135120392,-0.157344788312912,-0.3171069324016571
1684099787984693200,5.853693359375,0.05024486780166626,-0.148523211479187,-0.289590984582901
1684099787994689300,5.863689208984375,0.030969975516200066,-0.05461721494793892,-0.2686992883682251
1684099788004685300,5.873685302734375,0.011510007083415985,0.06944781541824341,-0.26252105832099915
1684099788014681300,5.883681396484375,0.0070074014365673065,0.20263516902923584,-0.26435089111328125
1684099788024677400,5.893677490234375,0.01987602561712265,0.3144361078739166,-0.2834224998950958
1684099788034673200,5.903673095703125,0.044933442026376724,0.37686887383461,-0.3176203966140747
1684099788044669400,5.91366943359375,0.07771890610456467,0.3932937681674957,-0.35003432631492615
1684099788054665200,5.923665283203125,0.10534893721342087,0.306894987821579,-0.38882195949554443
1684099788064661200,5.9336611328125,0.14352306723594666,0.12811978161334991,-0.4155944883823395
1684099788074657300,5.9436572265625,0.1851986050605774,-0.055106498301029205,-0.4165862500667572
1684099788084653300,5.9536533203125,0.21097718179225922,-0.22661933302879333,-0.4070524573326111
1684099788094649300,5.9636494140625,0.21119636297225952,-0.3803662955760956,-0.3826291561126709
1684099788104645400,5.973645263671875,0.18631353974342346,-0.4244743585586548,-0.36174657940864563
1684099788114640100,5.98364013671875,0.15067192912101746,-0.3132687509059906,-0.3578391969203949
1684099788124636400,5.993636474609375,0.11782076954841614,-0.10752730071544647,-0.38479676842689514
1684099788134632400,6.003632568359375,0.07560407370328903,0.08304743468761444,-0.4367949962615967
1684099788144628200,6.013628173828125,0.04258323833346367,0.1445777267217636,-0.48530885577201843
1684099788154624300,6.023624267578125,0.03609311208128929,0.08739086985588074,-0.5034220814704895
1684099788164620300,6.033620361328125,0.0577721893787384,-0.007571808993816376,-0.4899730384349823
1684099788174616300,6.0436162109375,0.10040699690580368,-0.10077312588691711,-0.47600290179252625
1684099788184612400,6.0536123046875,0.1474330574274063,-0.21909645199775696,-0.4618036150932312
1684099788194608000,6.063608154296875,0.17726631462574005,-0.31931331753730774,-0.44140034914016724
1684099788204604400,6.0736044921875,0.18693502247333527,-0.33877989649772644,-0.43078869581222534
1684099788214600400,6.083600341796875,0.1760522872209549,-0.2609463632106781,-0.4627167880535126
1684099788224596200,6.09359619140625,0.1583368331193924,-0.12370160967111588,-0.5036500096321106
1684099788234592300,6.10359228515625,0.14381301403045654,-0.02010437473654747,-0.5430499315261841
1684099788244588300,6.11358837890625,0.14121700823307037,-0.026334045454859734,-0.5536201596260071
1684099788254583300,6.123583251953125,0.152638778090477,-0.12862978875637054,-0.5410375595092773
1684099788264579300,6.133579345703125,0.16496793925762177,-0.24793606996536255,-0.5279927253723145
1684099788274575400,6.143575439453125,0.17230308055877686,-0.3173798620700836,-0.5168529748916626
1684099788284571400,6.1535712890625,0.17274324595928192,-0.33365005254745483,-0.49930500984191895
1684099788294567400,6.1635673828125,0.1724545657634735,-0.2860414981842041,-0.4936695098876953
1684099788304563200,6.173563232421875,0.1781328171491623,-0.180508092045784,-0.5081149935722351
1684099788314559200,6.183559326171875,0.18435369431972504,-0.10232114791870117,-0.5378497242927551
1684099788324555500,6.193555419921875,0.1874680519104004,-0.1230475902557373,-0.5645220875740051
1684099788334551300,6.20355126953125,0.19575580954551697,-0.20759683847427368,-0.5751643776893616
1684099788344547300,6.21354736328125,0.20312853157520294,-0.29427334666252136,-0.547102153301239
1684099788354543000,6.223543212890625,0.19385860860347748,-0.35038506984710693,-0.5207509994506836
1684099788364539400,6.233539306640625,0.17973880469799042,-0.3481728732585907,-0.5005289912223816
1684099788374535400,6.243535400390625,0.181301549077034,-0.29762473702430725,-0.4810234308242798
1684099788384531200,6.25353125,0.1898929327726364,-0.32008442282676697,-0.4613874554634094
1684099788394526200,6.263526123046875,0.18819090723991394,-0.4105466902256012,-0.45108315348625183
1684099788404522500,6.2735224609375,0.18021585047245026,-0.5240612030029297,-0.4662219285964966
1684099788414518300,6.283518310546875,0.1716681569814682,-0.6204918622970581,-0.5096389055252075
1684099788424514300,6.293514404296875,0.14852428436279297,-0.6434391140937805,-0.5454422831535339
1684099788434510300,6.30351025390625,0.12023857235908508,-0.5287634134292603,-0.5378834009170532
1684099788444506400,6.31350634765625,0.09561821073293686,-0.25824251770973206,-0.505559504032135
1684099788454502400,6.32350244140625,0.07015759497880936,-0.023000432178378105,-0.4675220847129822
1684099788464498200,6.333498291015625,0.06958536803722382,0.13351307809352875,-0.43000665307044983
1684099788474494200,6.343494140625,0.08556006848812103,0.18630997836589813,-0.3974052965641022
1684099788484490500,6.353490478515625,0.07701895385980606,0.115634024143219,-0.37727996706962585
1684099788494486300,6.363486328125,0.04137733206152916,-0.04664437100291252,-0.379321813583374
1684099788504482300,6.373482421875,0.006584410555660725,-0.20585958659648895,-0.3952483534812927
1684099788514478000,6.38347802734375,-0.025021452456712723,-0.27376699447631836,-0.399822860956192
1684099788524474400,6.393474365234375,-0.03351122513413429,-0.24762237071990967,-0.4072951674461365
1684099788534470400,6.403470458984375,-0.011976637877523899,-0.13475146889686584,-0.40602537989616394
1684099788544466200,6.413466064453125,0.029456257820129395,-0.011989392340183258,-0.4010891616344452
1684099788554461200,6.423461181640625,0.07528898864984512,0.021533947438001633,-0.3719720244407654
1684099788564457500,6.43345751953125,0.10727421939373016,-0.020453378558158875,-0.3187867999076843
1684099788574453200,6.443453369140625,0.12349899113178253,-0.09000502526760101,-0.29337915778160095
1684099788584449300,6.45344921875,0.11737453937530518,-0.1612856090068817,-0.30659160017967224
1684099788594445300,6.4634453125,0.09931458532810211,-0.21456055343151093,-0.3110974133014679
1684099788604441300,6.47344140625,0.05954296886920929,-0.2173444777727127,-0.2969774305820465
1684099788614437400,6.483437255859375,0.023822519928216934,-0.125030517578125,-0.2794317305088043
1684099788624433200,6.49343310546875,0.0014947031158953905,0.030222967267036438,-0.2533235549926758
1684099788634429200,6.50342919921875,0.0009471571538597345,0.1064801886677742,-0.21314391493797302
1684099788644425500,6.513425537109375,0.019652152433991432,0.07006553560495377,-0.19278118014335632
1684099788654421200,6.523421142578125,0.05199224874377251,-0.03924151882529259,-0.19125305116176605
1684099788664417300,6.533417236328125,0.06840410828590393,-0.13511978089809418,-0.18462732434272766
1684099788674413300,6.543413330078125,0.08058806508779526,-0.19751444458961487,-0.14702163636684418
1684099788684409300,6.553409423828125,0.08207918703556061,-0.256570428609848,-0.09045620262622833
1684099788694404400,6.563404296875,0.08262380212545395,-0.32298675179481506,-0.05636081472039223
1684099788704400400,6.573400390625,0.0836711898446083,-0.38142722845077515,-0.04721655324101448
1684099788714396200,6.583396240234375,0.09246095269918442,-0.4185016453266144,-0.022862480953335762
1684099788724392400,6.593392333984375,0.1139553114771843,-0.3620333671569824,0.008301890455186367
1684099788734388200,6.60338818359375,0.15527372062206268,-0.18615181744098663,0.013235663063824177
1684099788744384300,6.61338427734375,0.19915804266929626,-0.028816577047109604,-0.04719116538763046
1684099788754380500,6.623380615234375,0.22950422763824463,-0.03272956237196922,-0.12341535836458206
1684099788764376300,6.633376220703125,0.23753060400485992,-0.19399535655975342,-0.15700840950012207
1684099788774372600,6.64337255859375,0.22557620704174042,-0.41183900833129883,-0.14044222235679626
1684099788784368600,6.65336865234375,0.18450385332107544,-0.5824337601661682,-0.10617154836654663
1684099788794364400,6.663364501953125,0.14846090972423553,-0.5962377190589905,-0.051962900906801224
1684099788804360400,6.6733603515625,0.1540500372648239,-0.4443930685520172,0.008781139738857746
1684099788814356500,6.6833564453125,0.19612185657024384,-0.23475036025047302,0.048411641269922256
1684099788824352500,6.6933525390625,0.22139397263526917,-0.10115781426429749,0.030933521687984467
1684099788834348500,6.7033486328125,0.2295970469713211,-0.13590781390666962,-0.022191748023033142
1684099788844344300,6.71334423828125,0.24507589638233185,-0.2898676097393036,-0.013820545747876167
1684099788854339300,6.72333935546875,0.2581046223640442,-0.46704211831092834,0.016105128452181816
1684099788864335600,6.733335693359375,0.24086853861808777,-0.5858588218688965,0.02427402138710022
1684099788874331400,6.743331298828125,0.21182650327682495,-0.5799159407615662,0.029881039634346962
1684099788884327400,6.753327392578125,0.1799498200416565,-0.38846054673194885,0.040281038731336594
1684099788894323700,6.76332373046875,0.1559973508119583,0.001696256222203374,0.06384362280368805
1684099788904319500,6.773319580078125,0.1370413452386856,0.32828089594841003,0.0873398631811142
1684099788914315500,6.7833154296875,0.12966836988925934,0.42961257696151733,0.07263815402984619
1684099788924311300,6.793311279296875,0.13824449479579926,0.3621138334274292,0.02674664743244648
1684099788934307600,6.8033076171875,0.14762122929096222,0.20912161469459534,0.0036399969831109047
1684099788944303600,6.8133037109375,0.15414535999298096,0.05079236626625061,-0.017220841720700264
1684099788954299400,6.82329931640625,0.13716398179531097,0.002147332765161991,-0.03655192628502846
1684099788964295400,6.83329541015625,0.09937433898448944,0.060664232820272446,-0.05496552586555481
1684099788974291500,6.84329150390625,0.05526493489742279,0.18673454225063324,-0.07675470411777496
1684099788984287500,6.85328759765625,0.020153440535068512,0.34764090180397034,-0.10070730000734329
1684099788994283500,6.863283447265625,-0.008122672326862812,0.4993923306465149,-0.10962888598442078
1684099789004279300,6.873279296875,-0.00779670150950551,0.5975117087364197,-0.10655559599399567
1684099789014274600,6.883274658203125,0.006623516790568829,0.6163319945335388,-0.08427133411169052
1684099789024270600,6.8932705078125,0.021667318418622017,0.587421178817749,-0.0619671568274498
1684099789034266400,6.903266357421875,0.03268295153975487,0.5407588481903076,-0.028543949127197266
1684099789044262400,6.913262451171875,0.02684466354548931,0.4964972734451294,-0.01978105492889881
1684099789054258700,6.9232587890625,0.0014069484313949943,0.441275030374527,-0.030758604407310486
1684099789064254500,6.93325439453125,-0.02902579866349697,0.35690754652023315,-0.027320347726345062
1684099789074250500,6.94325048828125,-0.041492853313684464,0.274467796087265,0.003728383220732212
1684099789084246300,6.953246337890625,-0.037347905337810516,0.1808045655488968,0.041316919028759
1684099789094242600,6.96324267578125,-0.03608743101358414,0.011927120387554169,0.0915321558713913
1684099789104238600,6.973238525390625,-0.03734574839472771,-0.2336592823266983,0.1406760960817337
1684099789114234400,6.983234375,-0.05853572487831116,-0.42553627490997314,0.16329698264598846
1684099789124230400,6.99323046875,-0.09259935468435287,-0.41399404406547546,0.16809727251529694
1684099789134226700,7.003226806640625,-0.10205437242984772,-0.19523079693317413,0.18270418047904968
1684099789144222500,7.013222412109375,-0.11117347329854965,0.00031340867280960083,0.19548237323760986
1684099789154218500,7.023218505859375,-0.11403637379407883,0.008109812624752522,0.18208187818527222
1684099789164214300,7.03321435546875,-0.11273650079965591,-0.12065821886062622,0.1707838624715805
1684099789174209500,7.04320947265625,-0.0990755558013916,-0.3024434745311737,0.16247081756591797
1684099789184205600,7.05320556640625,-0.0763171911239624,-0.4972715377807617,0.16963717341423035
1684099789194201300,7.063201416015625,-0.05452028289437294,-0.6418737173080444,0.19979293644428253
1684099789204197400,7.073197265625,-0.02922062948346138,-0.6238628029823303,0.2299182265996933
1684099789214193700,7.083193603515625,-0.019333377480506897,-0.41063252091407776,0.20808057487010956
1684099789224189400,7.093189453125,-0.030993901193141937,-0.14146196842193604,0.15192681550979614
1684099789234185500,7.103185546875,-0.04947037622332573,0.01949043571949005,0.10814178735017776
1684099789244181500,7.113181396484375,-0.054617416113615036,0.012508423998951912,0.07978397607803345
1684099789254177500,7.123177490234375,-0.043233200907707214,-0.12116175889968872,0.05448154732584953
1684099789264173600,7.133173583984375,-0.023657528683543205,-0.2600627839565277,0.06341136246919632
1684099789274169300,7.14316943359375,-0.002753844950348139,-0.3655487298965454,0.12669526040554047
1684099789284165400,7.153165283203125,0.007000409997999668,-0.4119075536727905,0.2031882107257843
1684099789294161700,7.16316162109375,-0.00025191018357872963,-0.4111544191837311,0.23719970881938934
1684099789304157400,7.173157470703125,-0.019912485033273697,-0.331661194562912,0.24337950348854065
1684099789314153500,7.183153564453125,-0.04886184632778168,-0.1724236160516739,0.24421653151512146
1684099789324149200,7.193149169921875,-0.06966914981603622,-0.03409310057759285,0.23453931510448456
1684099789334144500,7.20314453125,-0.0865972638130188,-0.015265349298715591,0.2306060940027237
1684099789344140500,7.213140625,-0.08425650745630264,-0.11498940736055374,0.2345573902130127
1684099789354136600,7.223136474609375,-0.07838184386491776,-0.25663602352142334,0.26727139949798584
1684099789364132400,7.23313232421875,-0.08211468160152435,-0.33810028433799744,0.30272749066352844
1684099789374128600,7.243128662109375,-0.09044051915407181,-0.31591346859931946,0.3171221613883972
1684099789384124400,7.25312451171875,-0.10594552755355835,-0.23508992791175842,0.3175494372844696
1684099789394120400,7.263120361328125,-0.11555208265781403,-0.15030606091022491,0.30644673109054565
1684099789404116500,7.273116455078125,-0.10882997512817383,-0.1091376543045044,0.30292853713035583
1684099789414112500,7.283112548828125,-0.08505833148956299,-0.14777132868766785,0.3091166615486145
1684099789424108500,7.293108642578125,-0.06299496442079544,-0.23372945189476013,0.32133224606513977
1684099789434104300,7.303104248046875,-0.05783908814191818,-0.3003156781196594,0.3411727845668793
1684099789444100400,7.313100341796875,-0.07405946403741837,-0.28873977065086365,0.3826464116573334
1684099789454096600,7.3230966796875,-0.10061065107584,-0.2233370542526245,0.43712589144706726
1684099789464092400,7.333092529296875,-0.12171138823032379,-0.12508979439735413,0.4587344527244568
1684099789474088400,7.34308837890625,-0.12952910363674164,-0.038889385759830475,0.45417991280555725
1684099789484084500,7.35308447265625,-0.13125692307949066,-0.02510986104607582,0.4512016773223877
1684099789494080500,7.36308056640625,-0.13112163543701172,-0.041495226323604584,0.4321898818016052
1684099789504075500,7.373075439453125,-0.13201656937599182,-0.0428350567817688,0.39851462841033936
1684099789514071600,7.383071533203125,-0.13380567729473114,-0.02936665341258049,0.38348907232284546
1684099789524067300,7.3930673828125,-0.13643421232700348,-0.03199053928256035,0.39538317918777466
1684099789534063600,7.403063720703125,-0.13610078394412994,-0.050028394907712936,0.4321984350681305
1684099789544059400,7.413059326171875,-0.13360093533992767,-0.05038205906748772,0.47279030084609985
1684099789554055400,7.423055419921875,-0.12407960742712021,-0.00043766992166638374,0.5104919075965881
1684099789564051500,7.433051513671875,-0.1097855195403099,0.0542755089700222,0.5265496373176575
1684099789574047500,7.443047607421875,-0.09533893316984177,0.0646064430475235,0.5037305951118469
1684099789584043500,7.45304345703125,-0.08753832429647446,0.04379304498434067,0.46403878927230835
1684099789594039600,7.46303955078125,-0.09883864969015121,-0.03171982243657112,0.42801207304000854
1684099789604035300,7.473035400390625,-0.10540269315242767,-0.12472140789031982,0.4292404353618622
1684099789614031600,7.483031494140625,-0.11373625695705414,-0.20885679125785828,0.4632527232170105
1684099789624027400,7.49302734375,-0.11784345656633377,-0.24088963866233826,0.5058398842811584
1684099789634023400,7.5030234375,-0.14315226674079895,-0.2276739627122879,0.5689642429351807
1684099789644019500,7.51301953125,-0.18520040810108185,-0.18029938638210297,0.5742896795272827
1684099789654015500,7.523015380859375,-0.23666971921920776,-0.06921759992837906,0.5133303999900818
1684099789664011500,7.533011474609375,-0.2784300446510315,0.027173517271876335,0.4608842730522156
1684099789674007300,7.54300732421875,-0.3058217465877533,0.1311691552400589,0.4468664526939392
1684099789684002300,7.553002197265625,-0.3031061887741089,0.22227929532527924,0.4598672091960907
1684099789693998600,7.56299853515625,-0.27135732769966125,0.26814743876457214,0.45554277300834656
1684099789703994600,7.57299462890625,-0.2244662642478943,0.23574629426002502,0.43094557523727417
1684099789713990400,7.582990478515625,-0.17157988250255585,0.1454523503780365,0.409209668636322
1684099789723986400,7.592986328125,-0.1435360312461853,0.03477337583899498,0.37950456142425537
1684099789733982500,7.602982421875,-0.13912397623062134,-0.028195470571517944,0.3660646677017212
1684099789743978500,7.612978515625,-0.15156877040863037,0.00546595174819231,0.3648037016391754
1684099789753974800,7.622974853515625,-0.18286997079849243,0.08318497985601425,0.36411285400390625
1684099789763970600,7.632970458984375,-0.20882464945316315,0.16633792221546173,0.35672202706336975
1684099789773966800,7.642966796875,-0.20289193093776703,0.22353330254554749,0.37681370973587036
1684099789783962600,7.652962646484375,-0.1782817542552948,0.1858852058649063,0.3812861740589142
1684099789793958700,7.662958740234375,-0.15788966417312622,0.07197168469429016,0.3588179051876068
1684099789803954700,7.67295458984375,-0.14851297438144684,-0.03336745873093605,0.35113003849983215
1684099789813950700,7.68295068359375,-0.16440005600452423,-0.1051710769534111,0.3571287989616394
1684099789823946800,7.69294677734375,-0.17760394513607025,-0.1273765116930008,0.3673311769962311
1684099789833942500,7.702942626953125,-0.2012472301721573,-0.09354584664106369,0.380526602268219
1684099789843938600,7.7129384765625,-0.21112757921218872,-0.02245308831334114,0.37298059463500977
1684099789853933600,7.72293359375,-0.2054569125175476,0.05010020732879639,0.3638313114643097
1684099789863929900,7.732929931640625,-0.1868806630373001,0.05262821167707443,0.35247957706451416
1684099789873925600,7.742925537109375,-0.1619521528482437,0.011902086436748505,0.30320900678634644
1684099789883921700,7.752921630859375,-0.1461866796016693,0.0032593910582363605,0.27477630972862244
1684099789893917700,7.762917724609375,-0.14468012750148773,0.03442050516605377,0.2814943790435791
1684099789903913700,7.772913818359375,-0.14010827243328094,0.07161562144756317,0.28892987966537476
1684099789913909800,7.78290966796875,-0.11452354490756989,0.06159760430455208,0.287115216255188
1684099789923905500,7.792905517578125,-0.07564727216959,-0.030181653797626495,0.30641013383865356
1684099789933901800,7.80290185546875,-0.049451086670160294,-0.16667984426021576,0.2972046434879303
1684099789943897600,7.812897705078125,-0.0512351356446743,-0.23802806437015533,0.26519715785980225
1684099789953893600,7.8228935546875,-0.08501307666301727,-0.21206943690776825,0.22419649362564087
1684099789963889700,7.8328896484375,-0.11824153363704681,-0.07969333231449127,0.1993354707956314
1684099789973885700,7.8428857421875,-0.14166589081287384,0.05089955776929855,0.20275390148162842
1684099789983881700,7.8528818359375,-0.13946230709552765,0.08828359842300415,0.2215309739112854
1684099789993877800,7.862877685546875,-0.12061804533004761,0.008783717639744282,0.24482004344463348
1684099790003873500,7.87287353515625,-0.11271791160106659,-0.08886101841926575,0.2418394833803177
1684099790013869800,7.882869873046875,-0.11901761591434479,-0.0743076428771019,0.20884983241558075
1684099790023864800,7.89286474609375,-0.12659713625907898,0.060183197259902954,0.17190325260162354
1684099790033860600,7.902860595703125,-0.12777292728424072,0.19698631763458252,0.13938045501708984
1684099790043856600,7.912856689453125,-0.10377971827983856,0.22930991649627686,0.12944471836090088
1684099790053852700,7.922852783203125,-0.06296411156654358,0.1583755612373352,0.15341396629810333
1684099790063848700,7.9328486328125,-0.016989555209875107,0.013545721769332886,0.18636560440063477
1684099790073844700,7.9428447265625,0.005418282002210617,-0.15819887816905975,0.1926163136959076
1684099790083840500,7.952840576171875,-0.007636291440576315,-0.24576139450073242,0.18498572707176208
1684099790093836800,7.9628369140625,-0.03734012320637703,-0.18603016436100006,0.17330297827720642
1684099790103832800,7.972832763671875,-0.08415472507476807,-0.004434407688677311,0.14158569276332855
1684099790113828600,7.98282861328125,-0.119437076151371,0.20644986629486084,0.1105114072561264
1684099790123824600,7.99282470703125,-0.13275448977947235,0.3066110908985138,0.09332789480686188
1684099790133820700,8.002820556640625,-0.1118747666478157,0.24368725717067719,0.08371548354625702
1684099790143816700,8.012816650390626,-0.07015173137187958,0.0991588905453682,0.09147650003433228
1684099790153812700,8.022812744140625,-0.007470506243407726,-0.04047490656375885,0.1149464026093483
1684099790163808500,8.03280859375,0.028553267940878868,-0.1103539764881134,0.1268487125635147
1684099790173804800,8.0428046875,0.026436321437358856,-0.0749182254076004,0.1283659189939499
1684099790183800600,8.052800537109375,0.016996320337057114,0.0010323300957679749,0.12035376578569412
1684099790193796600,8.062796630859374,-0.01414269208908081,0.049656856805086136,0.0888586938381195
1684099790203791600,8.07279150390625,-0.051502764225006104,0.045282017439603806,0.052808694541454315
1684099790213788000,8.082787841796875,-0.08464927226305008,0.019422456622123718,0.03852429613471031
1684099790223783700,8.09278369140625,-0.11196226626634598,0.015639163553714752,0.027856595814228058
1684099790233779700,8.10277978515625,-0.11783693730831146,0.06447914242744446,0.03946131840348244
1684099790243775500,8.112775390625,-0.10837126523256302,0.16320864856243134,0.07635515928268433
1684099790253771800,8.122771728515625,-0.08387710899114609,0.28585493564605713,0.12844152748584747
1684099790263767800,8.132767822265626,-0.06607557088136673,0.3878821134567261,0.16545629501342773
1684099790273763600,8.142763671875,-0.05365912243723869,0.4477590322494507,0.1696891188621521
1684099790283759600,8.152759521484375,-0.04743185266852379,0.45151302218437195,0.14304818212985992
1684099790293755600,8.162755615234374,-0.043986786156892776,0.3742949366569519,0.09244866669178009
1684099790303751700,8.172751708984375,-0.02577265352010727,0.2390815019607544,0.01580706611275673
1684099790313747700,8.182747802734376,-0.0032763986382633448,0.09440740942955017,-0.05423859879374504
1684099790323743500,8.192743408203125,0.025681935250759125,0.020572137087583542,-0.09105455130338669
1684099790333739800,8.20273974609375,0.045002106577157974,0.06440643221139908,-0.0873173400759697
1684099790343735800,8.21273583984375,0.04267659783363342,0.1832861453294754,-0.05165758356451988
1684099790353731600,8.222731689453125,0.01630278304219246,0.30899959802627563,-0.025973526760935783
1684099790363727600,8.2327275390625,-0.018196815624833107,0.4042867124080658,-0.02165861241519451
1684099790373723600,8.2427236328125,-0.048092395067214966,0.42795687913894653,-0.034308359026908875
1684099790383718700,8.25271875,-0.056567270308732986,0.38565030694007874,-0.0705966204404831
1684099790393714700,8.262714599609374,-0.028526578098535538,0.3133510947227478,-0.11093685775995255
1684099790403710700,8.272710693359375,-0.0007936874171718955,0.238626629114151,-0.12687166035175323
1684099790413706800,8.282706787109374,0.005679125897586346,0.1600724309682846,-0.14090625941753387
1684099790423702800,8.292702880859375,0.012463998049497604,0.10353313386440277,-0.17188996076583862
1684099790433698600,8.302698486328126,0.01123388297855854,0.08406009525060654,-0.20153918862342834
1684099790443694600,8.312694580078125,-0.005175418220460415,0.10600940138101578,-0.2215145230293274
1684099790453691000,8.32269091796875,-0.009593069553375244,0.24637503921985626,-0.23841068148612976
1684099790463686700,8.332686767578124,-0.008905175141990185,0.39824554324150085,-0.23611131310462952
1684099790473682700,8.3426826171875,-0.013815244659781456,0.40009748935699463,-0.19768881797790527
1684099790483678500,8.352678466796876,0.0060281287878751755,0.3068470358848572,-0.13950352370738983
1684099790493674800,8.3626748046875,0.02477411925792694,0.0997479110956192,-0.15374930202960968
1684099790503670800,8.3726708984375,0.0392812043428421,0.014362044632434845,-0.21230565011501312
1684099790513666600,8.38266650390625,0.049230773001909256,0.06267151981592178,-0.2383710741996765
1684099790523662600,8.39266259765625,0.054411880671978,0.11286670714616776,-0.27535703778266907
1684099790533658600,8.40265869140625,0.06347568333148956,0.13985997438430786,-0.3189319372177124
1684099790543654700,8.412654541015625,0.0828888788819313,0.11718442291021347,-0.35644030570983887
1684099790553650700,8.422650634765626,0.10680726170539856,0.05622945725917816,-0.3800516128540039
1684099790563646700,8.432646728515625,0.12094438076019287,-0.023415427654981613,-0.4025091230869293
1684099790573641700,8.442641845703125,0.1357179880142212,-0.06692482531070709,-0.41207894682884216
1684099790583637800,8.4526376953125,0.16117630898952484,-0.08091221749782562,-0.40826311707496643
1684099790593633500,8.462633544921875,0.1922314316034317,-0.14188049733638763,-0.39392945170402527
1684099790603629600,8.472629638671876,0.20623785257339478,-0.1845618337392807,-0.36946892738342285
1684099790613625900,8.4826259765625,0.20658406615257263,-0.12033117562532425,-0.3427765965461731
1684099790623621600,8.49262158203125,0.19732116162776947,-0.011795724742114544,-0.3214564621448517
1684099790633617700,8.50261767578125,0.18247003853321075,0.00940996129065752,-0.31711605191230774
1684099790643613700,8.51261376953125,0.17469115555286407,-0.07618004083633423,-0.33749592304229736
1684099790653609700,8.522609619140624,0.1790400892496109,-0.16432641446590424,-0.34712883830070496
1684099790663605800,8.532605712890625,0.17475144565105438,-0.2007312923669815,-0.34640222787857056
1684099790673601500,8.5426015625,0.16106945276260376,-0.20436331629753113,-0.3711227476596832
1684099790683597800,8.552597900390625,0.15370024740695953,-0.1928292214870453,-0.41356921195983887
1684099790693593900,8.56259375,0.166011244058609,-0.1712123453617096,-0.44754448533058167
1684099790703589600,8.572589599609374,0.19967935979366302,-0.09235148876905441,-0.4516265392303467
1684099790713585700,8.582585693359375,0.23651167750358582,0.05257640779018402,-0.4329071640968323
1684099790723581700,8.592581787109374,0.2570163607597351,0.14219151437282562,-0.4100724756717682
1684099790733577700,8.60257763671875,0.2572872042655945,0.11474709957838058,-0.40279752016067505
1684099790743573800,8.61257373046875,0.25825798511505127,-0.014097025617957115,-0.40146738290786743
1684099790753568300,8.622568359375,0.27102622389793396,-0.15769173204898834,-0.40714603662490845
1684099790763564000,8.63256396484375,0.2840898334980011,-0.2639722526073456,-0.39577898383140564
1684099790773560300,8.642560302734376,0.2867910861968994,-0.33684247732162476,-0.40196338295936584
1684099790783556000,8.65255615234375,0.2767350673675537,-0.2762225270271301,-0.42759010195732117
1684099790793552100,8.66255224609375,0.24720697104930878,-0.1233762577176094,-0.44971004128456116
1684099790803548200,8.672548095703124,0.2114817500114441,-0.0323898121714592,-0.4507562220096588
1684099790813544200,8.682544189453125,0.1715732216835022,-0.03693582862615585,-0.4569608271121979
1684099790823540200,8.692540283203124,0.16073229908943176,-0.054094575345516205,-0.4579123854637146
1684099790833536300,8.702536376953125,0.1723783016204834,-0.014074188657104969,-0.4189833700656891
1684099790843532000,8.712531982421876,0.19710002839565277,0.02958107739686966,-0.37089043855667114
1684099790853528300,8.7225283203125,0.22675804793834686,-0.006415539421141148,-0.3698294460773468
1684099790863524000,8.732524169921875,0.26903560757637024,-0.11151007562875748,-0.3976489007472992
1684099790873520000,8.74252001953125,0.3057425022125244,-0.21664954721927643,-0.40701523423194885
1684099790883516200,8.75251611328125,0.3173367381095886,-0.2745463252067566,-0.4018115699291229
1684099790893512200,8.76251220703125,0.29431426525115967,-0.294685423374176,-0.406739741563797
1684099790903508200,8.77250830078125,0.24765384197235107,-0.29220321774482727,-0.4129207730293274
1684099790913504000,8.78250390625,0.202303946018219,-0.24968504905700684,-0.41868969798088074
1684099790923500300,8.792500244140625,0.18062976002693176,-0.1909671276807785,-0.43020713329315186
1684099790933496300,8.802496337890625,0.18834653496742249,-0.19799494743347168,-0.4533337652683258
1684099790943491300,8.8124912109375,0.22272369265556335,-0.28552165627479553,-0.45934444665908813
1684099790953487000,8.822487060546875,0.25222647190093994,-0.4150404930114746,-0.4585612118244171
1684099790963483100,8.832483154296876,0.27538320422172546,-0.5004191994667053,-0.42854031920433044
1684099790973479200,8.842479248046875,0.27511048316955566,-0.49491018056869507,-0.3461575508117676
1684099790983475200,8.85247509765625,0.26130959391593933,-0.4410935044288635,-0.2593514323234558
1684099790993471200,8.86247119140625,0.2393054962158203,-0.4061075747013092,-0.22140327095985413
1684099791003467000,8.872467041015625,0.23435896635055542,-0.39186662435531616,-0.25239917635917664
1684099791013463300,8.88246337890625,0.24374555051326752,-0.3747774064540863,-0.3075529932975769
1684099791023459000,8.892458984375,0.26465359330177307,-0.35889628529548645,-0.35706356167793274
1684099791033455000,8.902455078125,0.28153669834136963,-0.35942012071609497,-0.39891165494918823
1684099791043451100,8.912451171875,0.29841041564941406,-0.41881993412971497,-0.43152734637260437
1684099791053447200,8.922447265625,0.3081884980201721,-0.5185419917106628,-0.40863001346588135
1684099791063443200,8.932443115234374,0.29244309663772583,-0.5845194458961487,-0.35625123977661133
1684099791073439200,8.942439208984375,0.27935710549354553,-0.5123493671417236,-0.3047012388706207
1684099791083435300,8.952435302734376,0.26327359676361084,-0.3121660649776459,-0.25895562767982483
1684099791093431300,8.962431396484375,0.2485383003950119,-0.10853677988052368,-0.2279455065727234
1684099791103427000,8.972427001953125,0.24357670545578003,0.0011552944779396057,-0.2307722419500351
1684099791113423000,8.982423095703124,0.24478605389595032,-0.01540264394134283,-0.2597500681877136
1684099791123419400,8.99241943359375,0.25238311290740967,-0.11793354898691177,-0.29887285828590393
1684099791133415200,9.002415283203124,0.2541349232196808,-0.2673555314540863,-0.3222743272781372
1684099791143410200,9.01241015625,0.25232818722724915,-0.4219417870044708,-0.3190760612487793
1684099791153406200,9.02240625,0.24009256064891815,-0.5334150195121765,-0.2745994031429291
1684099791163402000,9.032402099609374,0.21942444145679474,-0.5117746591567993,-0.19515937566757202
1684099791173398300,9.042398193359375,0.16203145682811737,-0.34087347984313965,-0.12797313928604126
1684099791183394300,9.052394287109376,0.0976656973361969,-0.07562097907066345,-0.10999590158462524
1684099791193390000,9.06239013671875,0.04711996391415596,0.15220552682876587,-0.12534156441688538
1684099791203386000,9.07238623046875,0.016549156978726387,0.2649269998073578,-0.1533392369747162
1684099791213382100,9.082382080078125,0.009308554232120514,0.2778768837451935,-0.19170020520687103
1684099791223378200,9.092378173828125,0.022732676938176155,0.22331158816814423,-0.24353116750717163
1684099791233374200,9.102374267578124,0.04098678007721901,0.10626859217882156,-0.2555020749568939
1684099791243370200,9.112370361328125,0.07129833847284317,-0.030458755791187286,-0.21546266973018646
1684099791253366300,9.1223662109375,0.0864914059638977,-0.08143272995948792,-0.16380241513252258
1684099791263362000,9.132362060546875,0.07548344135284424,0.00717224320396781,-0.128060981631279
1684099791273358000,9.142358154296875,0.0577545128762722,0.14743614196777344,-0.11426261067390442
1684099791283354400,9.152354248046874,0.04584742337465286,0.2593514919281006,-0.11637964099645615
1684099791293350100,9.16235009765625,0.05059876665472984,0.302875280380249,-0.13330961763858795
1684099791303346200,9.17234619140625,0.05438290163874626,0.23927778005599976,-0.16594383120536804
1684099791313342200,9.18234228515625,0.05203372612595558,0.13499264419078827,-0.17312051355838776
1684099791323338200,9.192338134765626,0.023937612771987915,0.07421792298555374,-0.14086933434009552
1684099791333334300,9.202334228515625,-0.01363799162209034,0.11855316162109375,-0.08674272149801254
1684099791343329300,9.212329345703125,-0.038973618298769,0.24571570754051208,-0.0301265437155962
1684099791353325000,9.222324951171874,-0.05637950822710991,0.33954739570617676,-0.002010487951338291
1684099791363321300,9.2323212890625,-0.06863628327846527,0.3563089370727539,0.009453385137021542
1684099791373317000,9.242317138671876,-0.07606809586286545,0.3280456066131592,0.00872794073075056
1684099791383313200,9.252313232421875,-0.0661795362830162,0.27799928188323975,-0.01728777028620243
1684099791393309200,9.26230908203125,-0.03873006999492645,0.20458391308784485,-0.06292769312858582
1684099791403305200,9.27230517578125,0.0060318647883832455,0.06753470748662949,-0.09024873375892639
1684099791413301200,9.28230126953125,0.04651777446269989,-0.08726978302001953,-0.07640988379716873
1684099791423297300,9.29229736328125,0.0799175351858139,-0.1586436927318573,-0.03127051889896393
1684099791433293000,9.30229296875,0.08655040711164474,-0.15159989893436432,0.007249707821756601
1684099791443289300,9.312289306640626,0.07802920788526535,-0.07674050331115723,0.02975134551525116
1684099791453285000,9.32228515625,0.049732863903045654,0.01555214449763298,0.03253594785928726
1684099791463281200,9.33228125,0.017676303163170815,0.1061796322464943,0.016154909506440163
1684099791473277200,9.342277099609374,-0.007086568046361208,0.14965707063674927,-0.023967476561665535
1684099791483273200,9.352273193359375,-0.020555470138788223,0.1071249395608902,-0.059962622821331024
1684099791493269200,9.362269287109376,-0.018167680129408836,0.003141815308481455,-0.06716567277908325
1684099791503265000,9.37226513671875,0.005051127634942532,-0.06978866457939148,-0.03332795575261116
1684099791513261000,9.382260986328125,0.030904831364750862,-0.08343949168920517,0.01704360358417034
1684099791523257300,9.39225732421875,0.05179568752646446,-0.09561406075954437,0.04265590012073517
1684099791533253000,9.402253173828125,0.05504288151860237,-0.1058959886431694,0.05380468815565109
1684099791543249200,9.412249267578124,0.046247486025094986,-0.07928968966007233,0.05551920831203461
1684099791553244200,9.422244140625,0.019773533567786217,-0.0032140938565135,0.03880015015602112
1684099791563240200,9.432240234375,-0.008341674692928791,0.061873167753219604,0.002476405818015337
1684099791573236200,9.442236328125,-0.026492448523640633,0.061276353895664215,-0.029381658881902695
1684099791583232300,9.452232177734375,-0.023967184126377106,0.021377669647336006,-0.04122014716267586
1684099791593228000,9.46222802734375,-0.010435395874083042,-0.021660344675183296,-0.03462083637714386
1684099791603224300,9.472224365234375,0.01759703829884529,-0.04499389976263046,-0.024471262469887733
1684099791613220000,9.48222021484375,0.03690122440457344,-0.029729722067713737,-0.016827989369630814
1684099791623216000,9.492216064453125,0.04378437623381615,0.006009901408106089,-0.004374842159450054
1684099791633212200,9.502212158203125,0.036125924438238144,0.06374936550855637,-0.005480054300278425
1684099791643208200,9.512208251953124,0.006837148219347,0.12561212480068207,-0.008125962689518929
1684099791653204200,9.522204345703125,-0.021397951990365982,0.15294308960437775,-0.015514636412262917
1684099791663200300,9.5322001953125,-0.04675052687525749,0.14565327763557434,-0.009978339076042175
1684099791673196000,9.542196044921875,-0.05955793708562851,0.11335846036672592,0.001667398028075695
1684099791683192300,9.5521923828125,-0.06817539036273956,0.09648280590772629,0.0037270865868777037
1684099791693188000,9.56218798828125,-0.07947438210248947,0.1315944492816925,0.0013528787530958652
1684099791703184100,9.57218408203125,-0.09474053233861923,0.1882534772157669,0.004403941333293915
1684099791713180400,9.582180419921874,-0.10994824767112732,0.2326022982597351,0.005023925565183163
1684099791723176200,9.59217626953125,-0.11161251366138458,0.247889906167984,0.012122787535190582
1684099791733172200,9.602172119140626,-0.10264245420694351,0.24280886352062225,0.02041320689022541
1684099791743168000,9.61216796875,-0.08665589988231659,0.2267889678478241,0.021660691127181053
1684099791753163000,9.6221630859375,-0.07946749776601791,0.194257915019989,0.0032052507158368826
1684099791763160300,9.632160400390624,-0.0699799433350563,0.17325414717197418,-0.011157701723277569
1684099791773156000,9.642156005859375,-0.06569624692201614,0.18388362228870392,-0.01618495211005211
1684099791783152000,9.652152099609374,-0.07016517221927643,0.19971846044063568,-0.013924287632107735
1684099791793148200,9.662148193359375,-0.07486405223608017,0.22382405400276184,-0.014299526810646057
1684099791803144200,9.672144287109376,-0.07998258620500565,0.2380843460559845,-0.013737654313445091
1684099791813140200,9.68214013671875,-0.086390420794487,0.23065173625946045,-0.017896980047225952
1684099791823136000,9.692135986328125,-0.0975026860833168,0.22425934672355652,-0.020671969279646873
1684099791833132300,9.70213232421875,-0.1022239401936531,0.22144173085689545,-0.023188656195998192
1684099791843128300,9.71212841796875,-0.10004767775535583,0.22905482351779938,-0.027661431580781937
1684099791853124000,9.7221240234375,-0.0912022516131401,0.22868359088897705,-0.023268548771739006
1684099791863120100,9.7321201171875,-0.08453428745269775,0.22957786917686462,-0.012268421240150928
1684099791873116200,9.7421162109375,-0.08326955139636993,0.22053377330303192,0.004240780137479305
1684099791883112200,9.7521123046875,-0.08829543739557266,0.18293121457099915,0.008589277043938637
1684099791893108200,9.762108154296875,-0.10222217440605164,0.14827178418636322,0.01180317997932434
1684099791903104300,9.772104248046874,-0.11430363357067108,0.13715766370296478,0.008021404035389423
1684099791913100300,9.782100341796875,-0.11739316582679749,0.1499299257993698,0.005056239664554596
1684099791923096000,9.792095947265626,-0.11356518417596817,0.1638072431087494,0.010332584381103516
1684099791933092000,9.802092041015625,-0.0995982363820076,0.18029248714447021,0.025683844462037086
1684099791943088400,9.81208837890625,-0.08155524730682373,0.1822880655527115,0.04027903079986572
1684099791953084200,9.822084228515624,-0.05869227647781372,0.1537879854440689,0.053347695618867874
1684099791963079200,9.8320791015625,-0.045984603464603424,0.09460926800966263,0.07251600176095963
1684099791973075200,9.8420751953125,-0.03529387712478638,0.020767007023096085,0.09357734769582748
1684099791983071000,9.852071044921875,-0.034079741686582565,-0.02534322999417782,0.10401187837123871
1684099791993067300,9.8620673828125,-0.05035751312971115,-0.019716236740350723,0.10116469115018845
1684099792003063300,9.872063232421874,-0.07547173649072647,0.008728254586458206,0.09403872489929199
1684099792013059000,9.88205908203125,-0.09596449136734009,0.04179512709379196,0.09209035336971283
1684099792023055000,9.89205517578125,-0.0999334305524826,0.07529136538505554,0.09317070990800858
1684099792033051100,9.902051025390625,-0.08702535182237625,0.09078377485275269,0.10084833949804306
1684099792043047200,9.912047119140626,-0.06656233966350555,0.06507221609354019,0.10499689728021622
1684099792053043200,9.922043212890625,-0.04523254930973053,-0.005448020063340664,0.10934077948331833
1684099792063039200,9.932039306640625,-0.026227891445159912,-0.09091971069574356,0.11871909350156784
1684099792073035300,9.94203515625,-0.011865731328725815,-0.11925894021987915,0.13002794981002808
1684099792083031300,9.95203125,-0.026021884754300117,-0.08025262504816055,0.13444089889526367
1684099792093027000,9.962027099609376,-0.04992375522851944,-0.032070182263851166,0.13445207476615906
1684099792103023400,9.9720234375,-0.08155514299869537,-0.0009375521913170815,0.13326619565486908
1684099792113019100,9.98201904296875,-0.11128480732440948,0.007209057454019785,0.12046997249126434
1684099792123015200,9.99201513671875,-0.12312370538711548,0.0391249805688858,0.11797364801168442
1684099792133011200,10.00201123046875,-0.11860591918230057,0.1217745840549469,0.15702304244041443
1684099792143007200,10.01200732421875,-0.11103736609220505,0.15135617554187775,0.18416771292686462
1684099792153003300,10.022003173828125,-0.11094069480895996,0.10370902717113495,0.1869794726371765
1684099792162999000,10.0319990234375,-0.10309646278619766,0.04325540363788605,0.20940516889095306
1684099792172994000,10.041994140625,-0.08718700706958771,-0.0017677312716841698,0.22899912297725677
1684099792182990000,10.051989990234375,-0.07967737317085266,-0.01235126331448555,0.2255704700946808
1684099792192986400,10.061986328125,-0.08052026480436325,-0.0009015342220664024,0.20996887981891632
1684099792202982100,10.071982177734375,-0.07906060665845871,0.025462355464696884,0.2054722011089325
1684099792212978200,10.081978271484376,-0.08523114770650864,0.01779032126069069,0.20285217463970184
1684099792222974200,10.09197412109375,-0.09269577264785767,-0.019398197531700134,0.20977595448493958
1684099792232970200,10.10197021484375,-0.09167072176933289,-0.03966405615210533,0.2173510491847992
1684099792242966300,10.11196630859375,-0.09211945533752441,-0.038129325956106186,0.23510533571243286
1684099792252962000,10.121962158203125,-0.07802040874958038,-0.04589936509728432,0.2535093426704407
1684099792262958300,10.131958251953124,-0.06657775491476059,-0.04313873499631882,0.26042360067367554
1684099792272954000,10.1419541015625,-0.05751129612326622,-0.04199943691492081,0.2549191117286682
1684099792282950100,10.1519501953125,-0.06138011813163757,-0.0431351475417614,0.2490442395210266
1684099792292946200,10.1619462890625,-0.08466599881649017,-0.04338948056101799,0.25289517641067505
1684099792302942200,10.171942138671875,-0.12123451381921768,-0.015380868688225746,0.25627845525741577
1684099792312938200,10.181938232421874,-0.15743006765842438,0.026497604325413704,0.26281866431236267
1684099792322934300,10.191934326171875,-0.18185581266880035,0.08559419959783554,0.2792242169380188
1684099792332930000,10.201929931640626,-0.18093302845954895,0.11389587819576263,0.2989388108253479
1684099792342926300,10.21192626953125,-0.16401612758636475,0.0908161923289299,0.31326040625572205
1684099792352922000,10.221922119140626,-0.13593868911266327,0.05881138890981674,0.3042895495891571
1684099792362918100,10.231918212890625,-0.108365498483181,0.05518150329589844,0.2776317298412323
1684099792372914200,10.2419140625,-0.10207138955593109,0.05948783457279205,0.2624839246273041
1684099792382910200,10.25191015625,-0.10478293150663376,0.0561942383646965,0.26364123821258545
1684099792392905200,10.2619052734375,-0.1223379597067833,0.0221241544932127,0.27452796697616577
1684099792402901200,10.2719013671875,-0.14065654575824738,-0.04036898910999298,0.28466811776161194
1684099792412897000,10.28189697265625,-0.16369980573654175,-0.06559684872627258,0.299643874168396
1684099792422893300,10.291893310546875,-0.1746656745672226,-0.005592565983533859,0.31124797463417053
1684099792432889300,10.301889404296874,-0.17267149686813354,0.09291057288646698,0.31562381982803345
1684099792442885000,10.311885009765625,-0.17039792239665985,0.1543256640434265,0.304653525352478
1684099792452881200,10.321881103515626,-0.15468953549861908,0.15276506543159485,0.28428754210472107
1684099792462877200,10.331877197265625,-0.1417202353477478,0.09113704413175583,0.28116557002067566
1684099792472873200,10.341873291015625,-0.1343797743320465,0.02068125456571579,0.28941071033477783
1684099792482869200,10.351869140625,-0.13227000832557678,-0.006795908790081739,0.30136242508888245
1684099792492865000,10.361864990234375,-0.14099426567554474,0.00931062363088131,0.2978726327419281
1684099792502861300,10.371861328125,-0.14737430214881897,0.06999693065881729,0.2963528037071228
1684099792512857000,10.381857177734375,-0.15444792807102203,0.12113654613494873,0.29619860649108887
1684099792522853000,10.39185302734375,-0.15732383728027344,0.132207989692688,0.29252949357032776
1684099792532849200,10.40184912109375,-0.15953345596790314,0.13300587236881256,0.3026694655418396
1684099792542845200,10.41184521484375,-0.1589917093515396,0.12078261375427246,0.3222132623195648
1684099792552841200,10.42184130859375,-0.15966175496578217,0.10539566725492477,0.33430400490760803
1684099792562837200,10.431837158203125,-0.1699783205986023,0.07994651049375534,0.33978477120399475
1684099792572833300,10.441833251953126,-0.18025146424770355,0.051576390862464905,0.3296748697757721
1684099792582829300,10.451829345703125,-0.18291670083999634,0.02488032728433609,0.31144988536834717
1684099792592825000,10.4618251953125,-0.17877548933029175,0.01109527237713337,0.3003218472003937
1684099792602820000,10.471820068359374,-0.1604532152414322,0.03059733472764492,0.31462863087654114
1684099792612816100,10.481816162109375,-0.13930770754814148,0.03837749361991882,0.3370679020881653
1684099792622812200,10.491812255859376,-0.1082802265882492,0.012454547919332981,0.3665837347507477
1684099792632808200,10.50180810546875,-0.08087576180696487,-0.04451419413089752,0.4026413559913635
1684099792642804200,10.51180419921875,-0.06902368366718292,-0.10613588988780975,0.4218582808971405
1684099792652800000,10.521800048828124,-0.0808103010058403,-0.16182950139045715,0.4076937437057495
1684099792662796300,10.53179638671875,-0.11482775956392288,-0.16696368157863617,0.3608623445034027
1684099792672792300,10.541792236328124,-0.1512715220451355,-0.06254486739635468,0.3332592248916626
1684099792682788000,10.5517880859375,-0.18692083656787872,0.10162829607725143,0.32263195514678955
1684099792692784000,10.5617841796875,-0.21227386593818665,0.21788273751735687,0.31499239802360535
1684099792702780200,10.5717802734375,-0.21959161758422852,0.24710553884506226,0.3112572133541107
1684099792712776200,10.581776123046875,-0.1967954784631729,0.19311420619487762,0.3069186508655548
1684099792722772200,10.591772216796874,-0.16096201539039612,0.08757206052541733,0.32268574833869934
1684099792732768300,10.601768310546875,-0.13370350003242493,0.015631292015314102,0.34193506836891174
1684099792742764300,10.611764404296874,-0.12763088941574097,0.036266207695007324,0.3532629609107971
1684099792752760000,10.621760009765625,-0.14284153282642365,0.12187298387289047,0.357348769903183
1684099792762755300,10.63175537109375,-0.1615784913301468,0.20898304879665375,0.3504491150379181
1684099792772751400,10.64175146484375,-0.18112049996852875,0.26493871212005615,0.3168799877166748
1684099792782747400,10.651747314453125,-0.18162758648395538,0.3041495084762573,0.2878001034259796
1684099792792743200,10.6617431640625,-0.16866065561771393,0.3198789358139038,0.2806801497936249
1684099792802739500,10.671739501953125,-0.1478256732225418,0.3121529817581177,0.2634027600288391
1684099792812735200,10.6817353515625,-0.12568147480487823,0.27424609661102295,0.2614906132221222
1684099792822731300,10.691731201171875,-0.10240307450294495,0.22001312673091888,0.2727830111980438
1684099792832726300,10.701726318359375,-0.08389836549758911,0.18076425790786743,0.27520090341567993
1684099792842722300,10.711722412109374,-0.08559172600507736,0.1397530436515808,0.26385846734046936
1684099792852718300,10.72171826171875,-0.09645263105630875,0.11552920192480087,0.260634183883667
1684099792862714400,10.73171435546875,-0.11831425875425339,0.13356977701187134,0.276860773563385
1684099792872710100,10.741710205078125,-0.14002354443073273,0.17788396775722504,0.2785361707210541
1684099792882706400,10.75170654296875,-0.1486172378063202,0.207149937748909,0.2721231281757355
1684099792892702500,10.761702392578124,-0.1494593322277069,0.19863927364349365,0.2583521902561188
1684099792902698200,10.7716982421875,-0.1410389095544815,0.16965535283088684,0.24314497411251068
1684099792912694300,10.7816943359375,-0.12796784937381744,0.1504526287317276,0.24734105169773102
1684099792922690300,10.791690185546875,-0.11291729658842087,0.1398846060037613,0.26105210185050964
1684099792932686300,10.801686279296876,-0.1055414006114006,0.13089829683303833,0.25369858741760254
1684099792942682400,10.811682373046875,-0.09107746928930283,0.11461219936609268,0.24187666177749634
1684099792952678100,10.82167822265625,-0.08587764948606491,0.06354369223117828,0.25566864013671875
1684099792962674400,10.83167431640625,-0.10151973366737366,0.04040628299117088,0.2512718737125397
1684099792972670200,10.841670166015625,-0.12306736409664154,0.08838313072919846,0.2216830849647522
1684099792982666200,10.851666259765626,-0.14742900431156158,0.19055917859077454,0.1834491789340973
1684099792992662500,10.86166259765625,-0.16663438081741333,0.27988559007644653,0.17245778441429138
1684099793002658300,10.871658203125,-0.15967360138893127,0.3121364116668701,0.17837335169315338
1684099793012654300,10.881654296875,-0.13341563940048218,0.2863064110279083,0.19253817200660706
1684099793022650400,10.891650390625,-0.10973169654607773,0.19474007189273834,0.18954995274543762
1684099793032646400,10.901646484375,-0.10150279849767685,0.09259771555662155,0.18218684196472168
1684099793042642400,10.911642333984375,-0.10106220841407776,0.047997623682022095,0.16265705227851868
1684099793052638200,10.92163818359375,-0.11645260453224182,0.07653685659170151,0.14859183132648468
1684099793062633200,10.93163330078125,-0.1276588886976242,0.14405998587608337,0.14889785647392273
1684099793072629200,10.941629150390625,-0.13780206441879272,0.2235068827867508,0.16160592436790466
1684099793082625300,10.951625244140626,-0.1403081715106964,0.2830248773097992,0.17178282141685486
1684099793092621300,10.961621337890625,-0.13750386238098145,0.3024616837501526,0.1659899204969406
1684099793102617300,10.971617431640626,-0.12789799273014069,0.26873207092285156,0.1481219381093979
1684099793112613000,10.981613037109375,-0.11026307940483093,0.22413849830627441,0.14164432883262634
1684099793122609400,10.991609375,-0.09132843464612961,0.14764603972434998,0.1283249855041504
1684099793132605400,11.00160546875,-0.08002091944217682,0.05459412932395935,0.10768521577119827
1684099793142601200,11.011601318359375,-0.07587782293558121,0.0009125992655754089,0.10614611208438873
1684099793152597500,11.021597412109376,-0.08633232861757278,0.024128971621394157,0.12360738962888718
1684099793162593300,11.03159326171875,-0.09939993172883987,0.1192750632762909,0.13101668655872345
1684099793172589300,11.04158935546875,-0.09847475588321686,0.2152300924062729,0.12349299341440201
1684099793182585300,11.05158544921875,-0.07988263666629791,0.22737276554107666,0.1034943163394928
1684099793192581400,11.061581298828125,-0.052881646901369095,0.16200654208660126,0.07366104423999786
1684099793202577400,11.071577392578124,-0.013895632699131966,0.06173906847834587,0.05988398566842079
1684099793212573200,11.0815732421875,0.015875844284892082,-0.030798055231571198,0.061159636825323105
1684099793222569200,11.0915693359375,0.024681659415364265,-0.09228850901126862,0.06369123607873917
1684099793232565500,11.1015654296875,0.02487979829311371,-0.09919488430023193,0.06284008920192719
1684099793242561300,11.111561279296875,0.01722017675638199,-0.07027629017829895,0.07129592448472977
1684099793252557300,11.121557373046874,-0.001864036195911467,-0.03868560492992401,0.08095280826091766
1684099793262553000,11.131552978515625,-0.01911609061062336,-0.025237711146473885,0.06365123391151428
1684099793272549400,11.14154931640625,-0.026866154745221138,-0.014158427715301514,0.05096127465367317
1684099793282545400,11.15154541015625,-0.027055134996771812,0.0008427596185356379,0.04948611557483673
1684099793292540400,11.16154052734375,-0.02397732064127922,-0.01470424234867096,0.05165153369307518
1684099793302536200,11.1715361328125,-0.026660842821002007,-0.05663503706455231,0.05152236670255661
1684099793312532500,11.181532470703125,-0.021395506337285042,-0.07788919657468796,0.038245975971221924
1684099793322528300,11.1915283203125,-0.03050442971289158,-0.05924714356660843,0.027852699160575867
1684099793332524300,11.201524169921875,-0.03636418282985687,0.01872115582227707,0.029118767008185387
1684099793342520300,11.211520263671876,-0.03892708569765091,0.10288604348897934,0.029357558116316795
1684099793352516400,11.221516357421875,-0.03742905706167221,0.11544603854417801,0.028442760929465294
1684099793362512400,11.231512451171875,-0.031087450683116913,0.06325799971818924,0.04236180707812309
1684099793372508200,11.241508056640624,-0.024550722911953926,-0.02404494769871235,0.05083838105201721
1684099793382504200,11.251504150390625,-0.02119174227118492,-0.0962873101234436,0.04394244775176048
1684099793392500500,11.26150048828125,-0.03533951938152313,-0.11480826884508133,0.0347159281373024
1684099793402496300,11.271496337890625,-0.05518610402941704,-0.037732597440481186,0.032546281814575195
1684099793412492300,11.2814921875,-0.0694233700633049,0.0964616909623146,0.028561128303408623
1684099793422488300,11.29148828125,-0.06653908640146255,0.1732296347618103,0.015939224511384964
1684099793432484400,11.301484375,-0.045104626566171646,0.1691422164440155,0.001742444932460785
1684099793442480400,11.31148046875,-0.023107506334781647,0.09261549264192581,-0.006236712913960218
1684099793452476200,11.32147607421875,-0.003975891042500734,-0.03606472536921501,-0.007920895703136921
1684099793462472200,11.33147216796875,0.013844545930624008,-0.118381567299366,-0.012014410458505154
1684099793472468500,11.341468505859375,0.01663580723106861,-0.10890071839094162,-0.01461312361061573
1684099793482464300,11.35146435546875,0.00036275351885706186,-0.019336283206939697,-0.02729402668774128
1684099793492460300,11.361460205078124,-0.0130763566121459,0.09054361283779144,-0.045556388795375824
1684099793502456300,11.371456298828125,-0.02346031926572323,0.1595471203327179,-0.06462565809488297
1684099793512452400,11.381452392578124,-0.02329893223941326,0.16014926135540009,-0.06320539116859436
1684099793522447400,11.391447265625,-0.02038477174937725,0.10481896251440048,-0.061056431382894516
1684099793532443400,11.401443359375,-0.02193979173898697,0.020312335342168808,-0.06052806228399277
1684099793542439200,11.411439208984374,-0.017240967601537704,-0.029035506770014763,-0.07115360349416733
1684099793552435500,11.421435546875,-0.005101746413856745,-0.02191581018269062,-0.07649324089288712
1684099793562431200,11.43143115234375,0.009665458463132381,0.03952044993638992,-0.0871419832110405
1684099793572427300,11.44142724609375,0.0340389758348465,0.09913690388202667,-0.11004702746868134
1684099793582423300,11.45142333984375,0.06094769015908241,0.10074032843112946,-0.13775648176670074
1684099793592419300,11.46141943359375,0.08824162930250168,0.018347717821598053,-0.14668898284435272
1684099793602415400,11.471415283203125,0.09827125072479248,-0.09359292685985565,-0.14320248365402222
1684099793612411100,11.4814111328125,0.09390206634998322,-0.16356348991394043,-0.1394927054643631
1684099793622407200,11.4914072265625,0.07761447876691818,-0.13699454069137573,-0.12966232001781464
1684099793632403500,11.501403564453126,0.05973668023943901,-0.030628420412540436,-0.1344570815563202
1684099793642399200,11.511399169921875,0.05168580636382103,0.056382182985544205,-0.1556083709001541
1684099793652395300,11.521395263671875,0.05902627855539322,0.06769928336143494,-0.17867694795131683
1684099793662391600,11.5313916015625,0.08111636340618134,0.010603446513414383,-0.1974886953830719
1684099793672387300,11.54138720703125,0.10518787801265717,-0.0713750422000885,-0.21159598231315613
1684099793682383400,11.55138330078125,0.12157507985830307,-0.12620386481285095,-0.22051288187503815
1684099793692379100,11.561379150390625,0.1331680864095688,-0.12806035578250885,-0.22710873186588287
1684099793702375400,11.57137548828125,0.15077710151672363,-0.04477085918188095,-0.23965172469615936
1684099793712371500,11.581371337890625,0.17089754343032837,0.07038289308547974,-0.25309428572654724
1684099793722367200,11.5913671875,0.1914997696876526,0.12222597748041153,-0.2655281722545624
1684099793732363300,11.60136328125,0.2105560153722763,0.08505384624004364,-0.2854115962982178
1684099793742359300,11.611359375,0.21587465703487396,-0.018821956589818,-0.3004395067691803
1684099793752355300,11.621355224609376,0.19510892033576965,-0.13729028403759003,-0.30594852566719055
1684099793762350800,11.631350830078125,0.16963469982147217,-0.2228212207555771,-0.2911149263381958
1684099793772346600,11.6413466796875,0.14654722809791565,-0.21783392131328583,-0.26873400807380676
1684099793782342700,11.6513427734375,0.115553118288517,-0.12081409990787506,-0.27230292558670044
1684099793792338700,11.661338623046875,0.09204886108636856,0.01727532595396042,-0.29940006136894226
1684099793802334700,11.671334716796874,0.08656298369169235,0.09085467457771301,-0.32775869965553284
1684099793812330800,11.681330810546875,0.11095434427261353,0.07486958056688309,-0.3369964063167572
1684099793822326800,11.691326904296876,0.14195547997951508,-0.01632230542600155,-0.326853483915329
1684099793832322800,11.70132275390625,0.17196637392044067,-0.11768301576375961,-0.31190621852874756
1684099793842318800,11.71131884765625,0.17866109311580658,-0.1397317349910736,-0.29621946811676025
1684099793852314600,11.721314697265624,0.16440598666667938,-0.10615938901901245,-0.2948915958404541
1684099793862310700,11.731310546875,0.14313307404518127,-0.062480613589286804,-0.3202676773071289
1684099793872307000,11.741306884765624,0.13003218173980713,-0.04532959312200546,-0.34292957186698914
1684099793882302700,11.751302734375,0.1305762678384781,-0.04279373213648796,-0.3471405804157257
1684099793892298800,11.761298828125,0.13971303403377533,-0.06267289817333221,-0.33881792426109314
1684099793902294500,11.77129443359375,0.15794596076011658,-0.10811774432659149,-0.32425206899642944
1684099793912290800,11.781290771484375,0.17241065204143524,-0.1367350071668625,-0.3255077600479126
1684099793922286800,11.791286865234374,0.18723928928375244,-0.11342090368270874,-0.32709160447120667
1684099793932282600,11.80128271484375,0.19522903859615326,-0.07254350930452347,-0.317756712436676
1684099793942278700,11.811278564453126,0.19117213785648346,-0.05848521739244461,-0.2942644953727722
1684099793952274700,11.821274658203125,0.17087778449058533,-0.08084751665592194,-0.2911320924758911
1684099793962270700,11.831270751953125,0.15118113160133362,-0.12051429599523544,-0.30206984281539917
1684099793972266800,11.841266845703124,0.13415873050689697,-0.1479317992925644,-0.31653347611427307
1684099793982262500,11.851262451171875,0.12340952455997467,-0.15004661679267883,-0.3318326771259308
1684099793992257800,11.8612578125,0.12493471801280975,-0.11812064796686172,-0.3326106071472168
1684099794002253800,11.87125390625,0.13767258822917938,-0.044749293476343155,-0.32131847739219666
1684099794012249600,11.88124951171875,0.16278699040412903,-0.0026452471502125263,-0.3092338740825653
1684099794022245600,11.89124560546875,0.18926472961902618,-0.033874139189720154,-0.30464428663253784
1684099794032242000,11.901241943359375,0.19820868968963623,-0.09630049765110016,-0.3053489625453949
1684099794042237700,11.91123779296875,0.1945616602897644,-0.12461856007575989,-0.3217616677284241
1684099794052233700,11.921233642578125,0.17992785573005676,-0.10729283839464188,-0.3340721130371094
1684099794062229800,11.931229736328126,0.1586010605096817,-0.06243567913770676,-0.3426702916622162
1684099794072225800,11.941225830078125,0.14687436819076538,-0.006262684240937233,-0.3400963544845581
1684099794082221800,11.951221923828125,0.1472451239824295,0.04623293876647949,-0.3327147364616394
1684099794092217600,11.961217529296874,0.14963316917419434,0.08135790377855301,-0.32946380972862244
1684099794102213600,11.971213623046875,0.15664002299308777,0.06303329765796661,-0.33034563064575195
1684099794112210000,11.9812099609375,0.16329260170459747,-0.012534698471426964,-0.3392304480075836
1684099794122205700,11.991205810546875,0.16437964141368866,-0.09284231811761856,-0.3379676342010498
1684099794132201700,12.00120166015625,0.15121163427829742,-0.10524572432041168,-0.3423154950141907
1684099794142197500,12.011197509765625,0.13609258830547333,-0.0480516143143177,-0.3532140254974365
1684099794152193800,12.02119384765625,0.12819206714630127,0.015853598713874817,-0.3581573963165283
1684099794162189800,12.03118994140625,0.13310255110263824,0.05344291776418686,-0.34507620334625244
1684099794172185600,12.041185546875,0.14438901841640472,0.060875266790390015,-0.3257238268852234
1684099794182182000,12.051181884765626,0.15774856507778168,0.01761901192367077,-0.3089398443698883
1684099794192177700,12.061177734375,0.16022929549217224,-0.05441576614975929,-0.2964853048324585
1684099794202173700,12.071173583984375,0.1501762568950653,-0.13656514883041382,-0.302694171667099
1684099794212169700,12.081169677734374,0.13133598864078522,-0.15158671140670776,-0.30267098546028137
1684099794222165800,12.091165771484375,0.11882796138525009,-0.09948498010635376,-0.29539164900779724
1684099794232161800,12.101161865234374,0.1044578105211258,-0.003933958243578672,-0.3032149374485016
1684099794242156800,12.11115673828125,0.09893082827329636,0.12370723485946655,-0.301609605550766
1684099794252152600,12.121152587890625,0.11156033724546432,0.2447415143251419,-0.2826247215270996
1684099794262148600,12.131148681640624,0.13729608058929443,0.28814569115638733,-0.262552946805954
1684099794272145000,12.141144775390625,0.16873283684253693,0.22409588098526,-0.24771517515182495
1684099794282140700,12.151140625,0.20231783390045166,0.10046661645174026,-0.2465331107378006
1684099794292136700,12.16113671875,0.24843473732471466,-0.01544560119509697,-0.2588936388492584
1684099794302132700,12.1711328125,0.28393182158470154,-0.09983938187360764,-0.2644965350627899
1684099794312128800,12.181128662109375,0.2868189513683319,-0.18372362852096558,-0.28325024247169495
1684099794322124800,12.191124755859375,0.2548700273036957,-0.2214425653219223,-0.2985628545284271
1684099794332120600,12.20112060546875,0.21229462325572968,-0.19618941843509674,-0.3256847560405731
1684099794342116900,12.211116943359375,0.17302845418453217,-0.10284708440303802,-0.3341803550720215
1684099794352113000,12.22111279296875,0.14654891192913055,0.01817254349589348,-0.31573155522346497
1684099794362108700,12.231108642578125,0.1417868435382843,0.08619900047779083,-0.2966671288013458
1684099794372104700,12.241104736328126,0.16580164432525635,0.047407664358615875,-0.29093122482299805
1684099794382100700,12.251100830078125,0.20024509727954865,-0.10902095586061478,-0.29272234439849854
1684099794392096800,12.2610966796875,0.20620791614055634,-0.32070228457450867,-0.3138270974159241
1684099794402092800,12.2710927734375,0.19275948405265808,-0.4519737660884857,-0.323100745677948
1684099794412088600,12.281088623046875,0.17333118617534637,-0.4528467655181885,-0.30932047963142395
1684099794422084900,12.2910849609375,0.1407015025615692,-0.2867531180381775,-0.2905159890651703
1684099794432080600,12.30108056640625,0.09720836579799652,-0.04414236173033714,-0.25688132643699646
