time,seconds_elapsed,z,y,x
1684099577577074000,0.015073974609375,-0.1639728993177414,0.015971235930919647,-0.15658797323703766
1684099577587092700,0.0250927734375,-0.15610405802726746,0.12579414248466492,-0.03816144913434982
1684099577597110800,0.03511083984375,-0.15554828941822052,0.18253301084041595,0.11153316497802734
1684099577607129900,0.0451298828125,-0.1860649138689041,0.19000159204006195,0.28964218497276306
1684099577617147600,0.055147705078125,-0.24711047112941742,0.11132470518350601,0.48032140731811523
1684099577627165700,0.065165771484375,-0.3000440001487732,0.18167530000209808,0.6097718477249146
1684099577637184500,0.0751845703125,-0.372656911611557,0.3983916640281677,0.6759994626045227
1684099577647202800,0.085202880859375,-0.4567211866378784,0.6123364567756653,0.7479059100151062
1684099577657222000,0.095221923828125,-0.46433794498443604,0.7553972005844116,0.8794021010398865
1684099577667239700,0.10523974609375,-0.3829538822174072,0.8993716835975647,1.1208714246749878
1684099577677257700,0.1152578125,-0.1923750787973404,0.8981903791427612,1.4433292150497437
1684099577687276800,0.12527685546875,0.030677175149321556,0.8975592255592346,1.835281252861023
1684099577697294600,0.135294677734375,0.24822893738746643,0.9360015392303467,2.1555991172790527
1684099577707313700,0.145313720703125,0.5072402358055115,0.7381646633148193,2.246382713317871
1684099577717331700,0.155331787109375,0.6236280798912048,0.031344473361968994,2.2190475463867188
1684099577727349800,0.165349853515625,0.4860697090625763,-0.7241008281707764,2.1374738216400146
1684099577737368800,0.175368896484375,0.28333908319473267,-1.165900468826294,1.9671491384506226
1684099577747386600,0.18538671875,0.21431927382946014,-1.0001602172851562,1.7456119060516357
1684099577757405700,0.19540576171875,0.20882809162139893,-0.37262311577796936,1.559447169303894
1684099577767423700,0.205423828125,0.04368388280272484,0.1532856673002243,1.4350546598434448
1684099577777441800,0.21544189453125,-0.18042562901973724,0.5951716303825378,1.5608540773391724
1684099577787460900,0.2254609375,-0.2496347874403,1.003551721572876,2.0424022674560547
1684099577797478700,0.235478759765625,-0.3029814660549164,0.8204049468040466,2.261023759841919
1684099577807497700,0.245497802734375,-0.5836312770843506,-0.28518086671829224,1.7636274099349976
1684099577817515500,0.255515625,-0.9911852478981018,-0.7211241126060486,1.3231475353240967
1684099577827533800,0.265533935546875,-1.2423052787780762,-0.7771199941635132,1.1064817905426025
1684099577837553000,0.275552978515625,-1.230099081993103,-0.4927390515804291,0.9224239587783813
1684099577847570700,0.28557080078125,-1.2569727897644043,-0.3056653141975403,0.9085257053375244
1684099577857589800,0.29558984375,-1.328147053718567,-0.6696416735649109,1.034579873085022
1684099577867607800,0.30560791015625,-1.3495274782180786,-1.0455940961837769,1.1262751817703247
1684099577877626600,0.315626708984375,-1.2892624139785767,-1.0196499824523926,1.1441019773483276
1684099577887644700,0.325644775390625,-0.8829516768455505,0.044481310993433,0.9747501611709595
1684099577897662700,0.335662841796875,0.6323900818824768,1.4206233024597168,-0.29191216826438904
1684099577907681800,0.345681884765625,0.1680828481912613,0.900922954082489,-0.5541427135467529
1684099577917699800,0.355699951171875,-0.3125300407409668,0.1425497978925705,-0.7514790892601013
1684099577927718700,0.36571875,-0.3853187561035156,-0.38955405354499817,-0.8016724586486816
1684099577937736700,0.37573681640625,-0.3868361711502075,-0.4905407130718231,-0.6697322130203247
1684099577947754500,0.38575439453125,-0.39571675658226013,-0.5379676222801208,-0.5266397595405579
1684099577957773600,0.395773681640625,-0.43284696340560913,-0.5607163310050964,-0.41037434339523315
1684099577967791900,0.4057919921875,-0.48356473445892334,-0.5348237752914429,-0.26340752840042114
1684099577977810700,0.415810791015625,-0.5156533122062683,-0.4612514078617096,-0.13384434580802917
1684099577987828700,0.425828857421875,-0.5446969270706177,-0.2950991690158844,0.028563478961586952
1684099577997846800,0.4358466796875,-0.6084553003311157,-0.14529022574424744,0.12407610565423965
1684099578007865600,0.445865478515625,-0.8821046948432922,-0.16260424256324768,-0.08506166934967041
1684099578017884000,0.4558837890625,-1.228515625,-0.07803867012262344,-0.28423354029655457
1684099578027902700,0.46590283203125,-1.4783917665481567,0.004960076883435249,-0.34141239523887634
1684099578037920800,0.475920654296875,-1.3417688608169556,0.29459160566329956,-0.17021262645721436
1684099578047939800,0.48593994140625,-0.9963017106056213,0.6954540610313416,0.024803735315799713
1684099578057957600,0.49595751953125,-0.8492794036865234,0.9871798157691956,0.10376586765050888
1684099578067975700,0.5059755859375,-0.9015063643455505,1.0413740873336792,0.047841884195804596
1684099578077994800,0.515994873046875,-0.858086884021759,0.8363950848579407,-0.03748759254813194
1684099578088012800,0.5260126953125,-0.724269449710846,0.6538516283035278,-0.04318515956401825
1684099578098031900,0.536031982421875,-0.5946153402328491,0.5768901109695435,0.041959669440984726
1684099578108049700,0.546049560546875,-0.6326404809951782,0.5035860538482666,0.12972255051136017
1684099578118067700,0.556067626953125,-0.6900300979614258,0.5265789031982422,0.06223921850323677
1684099578128086800,0.566086669921875,-0.7895657420158386,0.5966613292694092,-0.2613614797592163
1684099578138104600,0.5761044921875,-1.3467975854873657,0.5053081512451172,-0.7705938220024109
1684099578148123600,0.58612353515625,-1.8070151805877686,0.47086602449417114,-1.2742018699645996
1684099578158141700,0.5961416015625,-2.3124682903289795,0.6302103400230408,-1.655941367149353
1684099578168159700,0.60615966796875,-2.615833282470703,0.4256656765937805,-2.1263034343719482
1684099578178178800,0.6161787109375,-2.750382900238037,-0.38181284070014954,-2.634032726287842
1684099578188196600,0.626196533203125,-2.1726672649383545,-0.34688815474510193,-2.638869524002075
1684099578198215700,0.636215576171875,-1.5639688968658447,0.15231984853744507,-2.07533860206604
1684099578208233700,0.646233642578125,-1.0810415744781494,0.8502858877182007,-0.8823943734169006
1684099578218252500,0.65625244140625,-0.89957594871521,1.762408971786499,0.5809762477874756
1684099578228270800,0.666270751953125,-1.1468554735183716,2.424663543701172,1.787495732307434
1684099578238288600,0.67628857421875,-1.908666968345642,2.3655405044555664,2.37141752243042
1684099578248307700,0.6863076171875,-2.8230955600738525,1.6360576152801514,2.0596771240234375
1684099578258325800,0.69632568359375,-3.6456165313720703,0.6634394526481628,0.9739248156547546
1684099578268344600,0.706344482421875,-4.458043575286865,-0.4906104803085327,-0.08782211691141129
1684099578278362600,0.716362548828125,-5.176026344299316,-1.137670874595642,-0.48410308361053467
1684099578288380700,0.726380615234375,-5.786190509796143,-0.8584306836128235,-0.359743595123291
1684099578298399700,0.736399658203125,-5.988104820251465,0.246160089969635,0.23860491812229156
1684099578308417800,0.746417724609375,-5.757708549499512,1.5397850275039673,0.8999629020690918
1684099578318436600,0.7564365234375,-5.378183364868164,2.47210693359375,0.9895285964012146
1684099578328454700,0.76645458984375,-5.023087501525879,2.59417462348938,0.5600736141204834
1684099578338473000,0.776472900390625,-4.681151866912842,1.804942011833191,0.10731188952922821
1684099578348491800,0.78649169921875,-4.157332420349121,0.6833951473236084,0.023711800575256348
1684099578358509800,0.796509765625,-3.3414671421051025,-0.17090696096420288,0.3919457197189331
1684099578368529000,0.80652880859375,-1.0656174421310425,-0.7944155335426331,0.8612040281295776
1684099578378546700,0.816546630859375,0.45067405700683594,-0.7221107482910156,0.6329666376113892
1684099578388565800,0.826565673828125,0.5507258772850037,-1.0888941287994385,-0.09288559854030609
1684099578398583600,0.83658349609375,0.8046008348464966,-1.5984625816345215,-0.7412616014480591
1684099578408601900,0.846601806640625,0.6978080868721008,-1.5559806823730469,-1.2275837659835815
1684099578418621000,0.856620849609375,0.6085625886917114,-1.3376520872116089,-1.3658393621444702
1684099578428638700,0.866638671875,0.6091585755348206,-1.028004765510559,-1.3424265384674072
1684099578438657800,0.87665771484375,0.851118266582489,-0.4736069142818451,-1.32273530960083
1684099578448675600,0.886675537109375,1.1791704893112183,0.6039093732833862,-0.9854555130004883
1684099578458693600,0.896693603515625,1.34807288646698,1.489138126373291,-0.25365492701530457
1684099578468712700,0.906712646484375,1.2432003021240234,2.018258571624756,0.4551869332790375
1684099578478730800,0.916730712890625,0.908603847026825,1.932332158088684,0.8123979568481445
1684099578488749800,0.926749755859375,0.48177364468574524,1.574310064315796,0.8588042855262756
1684099578498768400,0.936768310546875,-0.05456918105483055,1.1289907693862915,0.7655783295631409
1684099578508787500,0.946787353515625,-0.644599437713623,0.6080024838447571,0.7361389398574829
1684099578518805200,0.95680517578125,-1.129109263420105,0.3421979248523712,0.8408284783363342
1684099578528823300,0.9668232421875,-1.388442039489746,0.3301814794540405,1.0310537815093994
1684099578538842000,0.976842041015625,-1.389629602432251,0.4186348617076874,1.1866486072540283
1684099578548860400,0.9868603515625,-1.1910099983215332,0.6323897838592529,1.2580375671386719
1684099578558879500,0.99687939453125,-1.0781246423721313,0.7161834836006165,1.3160654306411743
1684099578568897300,1.006897216796875,-1.1413094997406006,0.635235607624054,1.1810508966445923
1684099578578915300,1.016915283203125,-1.3987733125686646,0.5957441329956055,0.99239182472229
1684099578588934400,1.026934326171875,-2.5002989768981934,0.8207937479019165,1.200537919998169
1684099578598952200,1.0369521484375,-2.1513218879699707,1.2895656824111938,1.3932478427886963
1684099578608971300,1.04697119140625,-1.6056709289550781,1.4567373991012573,1.2672291994094849
1684099578618989300,1.0569892578125,-1.4318816661834717,0.9862425327301025,0.8397958278656006
1684099578629007400,1.06700732421875,-1.2421753406524658,0.1735704392194748,0.3634481728076935
1684099578639026400,1.0770263671875,-1.2943148612976074,-0.23935702443122864,-0.2624207139015198
1684099578649044200,1.087044189453125,-1.0396226644515991,-0.14278466999530792,-0.6426932215690613
1684099578659063300,1.097063232421875,-0.4862624406814575,0.6008190512657166,-0.4134334623813629
1684099578669081000,1.1070810546875,-0.028715118765830994,1.2533609867095947,0.304302841424942
1684099578679100200,1.11710009765625,0.3204391598701477,1.3721323013305664,0.9250785112380981
1684099578689118500,1.127118408203125,0.33096688985824585,-0.0458073616027832,1.7104729413986206
1684099578699136300,1.13713623046875,1.2784210443496704,0.7268558144569397,2.5372672080993652
1684099578709155300,1.1471552734375,1.426025152206421,0.8189178109169006,2.319819927215576
1684099578719173400,1.15717333984375,1.914250135421753,0.7364482283592224,0.6496900320053101
1684099578729192200,1.167192138671875,3.039079189300537,0.9703664779663086,-1.098884105682373
1684099578739210200,1.177210205078125,3.50651216506958,0.8103694319725037,-1.9060120582580566
1684099578749228300,1.187228271484375,3.4905571937561035,0.25965115427970886,-1.9895812273025513
1684099578759247400,1.197247314453125,3.2011301517486572,-0.14901551604270935,-1.5147449970245361
1684099578769265400,1.207265380859375,3.097031831741333,-0.14653877913951874,-0.9633691906929016
1684099578779284200,1.2172841796875,3.275423765182495,0.1261393278837204,-0.7970749139785767
1684099578789302300,1.22730224609375,3.5569424629211426,0.4339543879032135,-1.060873031616211
1684099578799321300,1.2373212890625,3.688905954360962,0.6663137078285217,-1.4974380731582642
1684099578809339400,1.24733935546875,3.461716651916504,0.7982501983642578,-1.6305265426635742
1684099578819357400,1.257357421875,3.0514867305755615,0.7819466590881348,-1.4009323120117188
1684099578829376300,1.267376220703125,2.6557164192199707,0.8093127608299255,-1.0761404037475586
1684099578839394300,1.277394287109375,2.423004627227783,0.7149699330329895,-0.8908950686454773
1684099578849413400,1.287413330078125,2.195366382598877,0.4660913944244385,-0.6803759336471558
1684099578859431200,1.29743115234375,1.9367733001708984,-0.009467587806284428,-0.3645923137664795
1684099578869449500,1.307449462890625,1.782502293586731,-0.3245997130870819,-0.07753045111894608
1684099578879468300,1.31746826171875,1.5476865768432617,-0.1313759982585907,0.14214769005775452
1684099578889486300,1.327486328125,1.2148041725158691,0.3629986047744751,0.23085811734199524
1684099578899505400,1.33750537109375,0.9047055244445801,0.8606216907501221,0.14666645228862762
1684099578909523200,1.347523193359375,0.5917015075683594,1.147099494934082,0.03311539068818092
1684099578919541200,1.357541259765625,0.24288564920425415,1.1409399509429932,0.07786627858877182
1684099578929560300,1.367560302734375,-0.12073250859975815,0.9145656824111938,0.2030992954969406
1684099578939578400,1.377578369140625,-0.47967272996902466,0.7063665390014648,0.25408080220222473
1684099578949597400,1.387597412109375,-0.7520970702171326,0.4300132095813751,0.228848397731781
1684099578959615200,1.397615234375,-0.7439824342727661,0.5228567123413086,-0.14000792801380157
1684099578969634300,1.40763427734375,-0.5057640075683594,0.8579729199409485,-0.8090304732322693
1684099578979652400,1.41765234375,-0.5891701579093933,0.681378960609436,-1.6373642683029175
1684099578989670400,1.42767041015625,-0.9277905225753784,0.3135495185852051,-2.411649227142334
1684099578999689200,1.437689208984375,-1.3502613306045532,0.3557066023349762,-2.6918280124664307
1684099579009707300,1.447707275390625,-1.7796616554260254,0.5920277833938599,-2.260542869567871
1684099579019726300,1.457726318359375,-1.83806574344635,0.9141294956207275,-1.5063765048980713
1684099579029744400,1.467744384765625,-1.6651240587234497,1.237829327583313,-0.5855688452720642
1684099579039762200,1.47776220703125,-1.5391451120376587,0.984808087348938,0.44061002135276794
1684099579049781200,1.48778125,-1.577765703201294,0.6661542057991028,1.0415585041046143
1684099579059799600,1.497799560546875,-1.6601388454437256,0.19374395906925201,1.2132943868637085
1684099579069818400,1.507818359375,-1.072310209274292,0.43328091502189636,1.5676047801971436
1684099579079836400,1.51783642578125,-0.8933757543563843,1.4560339450836182,2.328503370285034
1684099579089855500,1.52785546875,0.058360543102025986,1.8565512895584106,2.4280483722686768
1684099579099873300,1.537873291015625,0.6595014929771423,1.9623522758483887,2.392871856689453
1684099579109891300,1.547891357421875,0.904512345790863,1.6013327836990356,2.241929054260254
1684099579119910100,1.55791015625,0.9345178008079529,1.47446608543396,1.867069959640503
1684099579129928400,1.567928466796875,0.7206342816352844,1.4118577241897583,1.1467658281326294
1684099579139947500,1.577947509765625,0.3955312967300415,1.0067362785339355,-0.03281182423233986
1684099579149965300,1.58796533203125,0.18584968149662018,0.7264971733093262,-1.292072057723999
1684099579159983400,1.5979833984375,0.12803858518600464,0.777983546257019,-1.870461344718933
1684099579170002200,1.608002197265625,0.2615974545478821,0.8225976228713989,-1.8057342767715454
1684099579180020200,1.618020263671875,0.4645182192325592,0.7156104445457458,-1.520771861076355
1684099579190039300,1.628039306640625,0.6667016744613647,0.5138483047485352,-1.3403288125991821
1684099579200057300,1.638057373046875,0.8811357617378235,0.5411458611488342,-1.3699032068252563
1684099579210075400,1.648075439453125,1.0460103750228882,0.6785812377929688,-1.5669347047805786
1684099579220094200,1.65809423828125,1.210829257965088,0.8335383534431458,-1.8455679416656494
1684099579230112300,1.6681123046875,1.317901372909546,0.93902587890625,-2.1600968837738037
1684099579240131300,1.67813134765625,1.4445736408233643,0.935103714466095,-2.3709604740142822
1684099579250149400,1.6881494140625,1.511982798576355,1.005947470664978,-2.153144598007202
1684099579260168200,1.698168212890625,1.461728811264038,0.18398435413837433,-1.6004141569137573
1684099579270186500,1.7081865234375,1.3716611862182617,-0.9605826139450073,-1.1666699647903442
1684099579280204300,1.718204345703125,1.3571792840957642,-1.3809229135513306,-1.0038721561431885
1684099579290223400,1.728223388671875,1.2768412828445435,-0.9919121265411377,-0.8885429501533508
1684099579300241200,1.7382412109375,1.1909282207489014,-0.20136520266532898,-0.7062574028968811
1684099579310260200,1.74826025390625,1.1854958534240723,0.8075291514396667,-0.5025162696838379
1684099579320278500,1.758278564453125,1.2077003717422485,1.8901599645614624,-0.18162696063518524
1684099579330296300,1.76829638671875,1.1674163341522217,2.2935032844543457,0.24866211414337158
1684099579340315400,1.7783154296875,0.933165967464447,1.8480833768844604,0.6738076210021973
1684099579350333200,1.788333251953125,0.6324713826179504,1.0403705835342407,0.6725892424583435
1684099579360352300,1.798352294921875,0.3855495750904083,0.3133693337440491,0.44476839900016785
1684099579370370300,1.808370361328125,0.14177900552749634,-0.20112809538841248,0.3029811680316925
1684099579380388400,1.818388427734375,0.12882880866527557,-0.5868245363235474,0.294585645198822
1684099579390407400,1.828407470703125,0.2870410680770874,-0.8170322179794312,0.42323416471481323
1684099579400425200,1.83842529296875,0.26055601239204407,-1.1239333152770996,0.5985828042030334
1684099579410444300,1.8484443359375,-0.05595427006483078,-1.2310879230499268,0.6596972942352295
1684099579420462300,1.85846240234375,-0.4942602515220642,-0.7700921893119812,0.7600691914558411
1684099579430480100,1.868480224609375,-0.3750068247318268,-0.37899473309516907,0.7460383176803589
1684099579440499200,1.878499267578125,-0.1904030442237854,-0.5258108973503113,0.6700741648674011
1684099579450517500,1.888517578125,-0.16999736428260803,-1.049338936805725,0.532974123954773
1684099579460536300,1.898536376953125,-0.3488582372665405,-1.9868288040161133,0.29785212874412537
1684099579470554400,1.908554443359375,-1.0295480489730835,-3.754387378692627,-0.49443402886390686
1684099579480573400,1.918573486328125,-1.3779324293136597,-5.557252883911133,-2.054213523864746
1684099579490591200,1.92859130859375,-1.0970096588134766,-5.874458312988281,-2.5597147941589355
1684099579500608800,1.93860888671875,-0.5124070048332214,-5.455822944641113,-2.665144205093384
1684099579510627800,1.9486279296875,0.47675755620002747,-4.7401580810546875,-2.6335346698760986
1684099579520645600,1.958645751953125,1.2537592649459839,-2.996091604232788,-1.9750908613204956
1684099579530664700,1.968664794921875,1.5351941585540771,-3.1217846870422363,-1.0886659622192383
1684099579540682800,1.978682861328125,1.3518868684768677,-3.7479331493377686,-0.6257600784301758
1684099579550700500,1.988700439453125,1.19416081905365,-4.017838001251221,-0.8042265176773071
1684099579560719600,1.9987197265625,1.1955856084823608,-3.30928111076355,-1.1795504093170166
1684099579570737700,2.008737548828125,1.2644978761672974,-2.142091989517212,-1.590190052986145
1684099579580756700,2.0187568359375,1.3353921175003052,-1.2069898843765259,-1.9173753261566162
1684099579590774800,2.02877490234375,1.3453582525253296,-0.5463138818740845,-2.12900447845459
1684099579600793600,2.038793701171875,1.203514575958252,-0.06850449740886688,-2.2646169662475586
1684099579610811600,2.048811767578125,0.9402382373809814,0.3324953615665436,-2.3286921977996826
1684099579620829700,2.05882958984375,0.6191040873527527,0.8411279916763306,-2.302053689956665
1684099579630848800,2.068848876953125,0.23626001179218292,1.4346089363098145,-2.2294137477874756
1684099579640866800,2.07886669921875,-0.20245349407196045,2.0582115650177,-2.148555278778076
1684099579650885600,2.0888857421875,-0.6993340849876404,2.7244009971618652,-2.07694935798645
1684099579660903700,2.098903564453125,-1.1302108764648438,3.360837936401367,-1.928394079208374
1684099579670921700,2.108921630859375,-1.4462064504623413,3.628232479095459,-1.6414436101913452
1684099579680940500,2.1189404296875,-1.5530422925949097,3.5523388385772705,-1.2484774589538574
1684099579690958800,2.128958740234375,-1.467236876487732,3.272684335708618,-0.907961368560791
1684099579700978000,2.13897802734375,-1.2189680337905884,2.859837770462036,-0.7375856637954712
1684099579710995700,2.14899560546875,-0.880207896232605,2.5177581310272217,-0.7618417739868164
1684099579721013800,2.159013671875,-0.5913661122322083,2.3189480304718018,-0.8837946653366089
1684099579731032600,2.169032470703125,-0.32103103399276733,2.200014591217041,-0.9645907282829285
1684099579741050600,2.179050537109375,-0.11996370553970337,2.002351760864258,-0.886111319065094
1684099579751069700,2.189069580078125,-0.014263375662267208,1.7224692106246948,-0.6829348206520081
1684099579761087700,2.199087646484375,0.05238055810332298,1.4547940492630005,-0.4927639663219452
1684099579771106800,2.20910693359375,0.11062788218259811,1.2988638877868652,-0.3563089370727539
1684099579781124600,2.21912451171875,0.2591412663459778,1.2914773225784302,-0.18858136236667633
1684099579791142700,2.229142578125,0.5261783003807068,1.473050594329834,0.028951488435268402
1684099579801161700,2.23916162109375,0.8546182513237,1.5831021070480347,0.2326691746711731
1684099579811179500,2.249179443359375,1.12070631980896,1.5609159469604492,0.366234689950943
1684099579821198600,2.259198486328125,1.2583117485046387,1.3169481754302979,0.43234044313430786
1684099579831216600,2.269216552734375,1.2583125829696655,0.9717594385147095,0.48309576511383057
1684099579841234700,2.279234619140625,1.1663076877593994,0.66322261095047,0.5088843107223511
1684099579851253800,2.289253662109375,1.1777088642120361,0.500569760799408,0.4988466501235962
1684099579861271600,2.299271484375,1.296204686164856,0.3345310091972351,0.4752499759197235
1684099579871290600,2.30929052734375,1.3610422611236572,0.09914777427911758,0.4569777548313141
1684099579881308700,2.31930859375,1.1995261907577515,-0.3130113184452057,0.435502290725708
1684099579891327700,2.32932763671875,0.8204830884933472,-0.9115509390830994,0.38391607999801636
1684099579901345800,2.339345703125,0.3777252733707428,-1.4804790019989014,0.259455144405365
1684099579911363600,2.349363525390625,-0.006022926885634661,-2.0093278884887695,0.10341521352529526
1684099579921382700,2.359382568359375,-0.22341549396514893,-2.2839066982269287,-0.0019862917251884937
1684099579931400700,2.369400634765625,-0.33031103014945984,-2.335325002670288,-0.0354747399687767
1684099579941419500,2.37941943359375,-0.318019300699234,-2.308542490005493,-0.07478013634681702
1684099579951437800,2.389437744140625,-0.2858105003833771,-2.3318023681640625,-0.06553630530834198
1684099579961455600,2.39945556640625,-0.2243298888206482,-2.4114065170288086,-0.012642884626984596
1684099579971474700,2.409474609375,-0.11668092012405396,-2.5548224449157715,0.04252449795603752
1684099579981492700,2.41949267578125,0.012432124465703964,-2.7233803272247314,0.1125069335103035
1684099579991511600,2.429511474609375,0.21584543585777283,-2.979361057281494,0.2800799608230591
1684099580001529600,2.439529541015625,0.39685285091400146,-3.24153470993042,0.4905902147293091
1684099580011548000,2.4495478515625,0.47499558329582214,-3.5415451526641846,0.6647180318832397
1684099580021566700,2.459566650390625,0.4104999005794525,-4.12492036819458,0.8679993748664856
1684099580031584800,2.469584716796875,0.11298993974924088,-4.7051591873168945,1.13591468334198
1684099580041603800,2.479603759765625,-0.6298322677612305,-5.177294731140137,1.7087067365646362
1684099580051621600,2.48962158203125,-1.3048096895217896,-7.077459335327148,2.275773525238037
1684099580061640700,2.499640625,-2.0053577423095703,-9.652688026428223,2.490055799484253
1684099580071658500,2.509658447265625,-2.4508652687072754,-12.588715553283691,2.19464111328125
1684099580081676800,2.5196767578125,-2.5796709060668945,-15.408893585205078,1.3757885694503784
1684099580091695900,2.52969580078125,-2.350092649459839,-16.944067001342773,0.1779002994298935
1684099580101713700,2.539713623046875,-2.28753399848938,-13.896910667419434,0.5450176000595093
1684099580111732700,2.549732666015625,-2.105661630630493,-9.050451278686523,2.119108200073242
1684099580121750500,2.55975048828125,-1.5289863348007202,-4.915438652038574,2.5422723293304443
1684099580131768600,2.5697685546875,-0.4264101982116699,-2.2867729663848877,2.1503450870513916
1684099580141787600,2.57978759765625,0.6482076644897461,-1.4827886819839478,0.995294988155365
1684099580151805700,2.5898056640625,1.5411194562911987,-1.1078726053237915,0.15377576649188995
1684099580161824800,2.59982470703125,2.096590518951416,-0.40315794944763184,-0.15195916593074799
1684099580171842600,2.609842529296875,2.2724835872650146,0.3249731957912445,-0.17852526903152466
1684099580181861600,2.619861572265625,2.102242946624756,0.8186802864074707,-0.1209007203578949
1684099580191879700,2.629879638671875,1.6314302682876587,0.8397959470748901,-0.10820303857326508
1684099580201897700,2.639897705078125,0.898518979549408,0.4325476288795471,-0.21585360169410706
1684099580211916800,2.649916748046875,0.0659077912569046,-0.18245616555213928,-0.38487884402275085
1684099580221934800,2.659934814453125,-0.4195222854614258,-0.6208080649375916,-0.38609743118286133
1684099580231953700,2.66995361328125,-0.6401686668395996,-1.1920946836471558,-0.32041776180267334
1684099580241971700,2.6799716796875,-0.6676866412162781,-1.7408864498138428,-0.2549208402633667
1684099580251989500,2.689989501953125,-0.7250732183456421,-1.94425630569458,-0.11710091680288315
1684099580262008600,2.700008544921875,-0.7456442713737488,-1.6659653186798096,-0.024910271167755127
1684099580272027000,2.71002685546875,-0.6660785675048828,-1.3354289531707764,-0.12732958793640137
1684099580282045700,2.720045654296875,-0.5612501502037048,-1.2622787952423096,-0.29717570543289185
1684099580292063700,2.730063720703125,-0.46647706627845764,-1.3400002717971802,-0.42743223905563354
1684099580302082800,2.740082763671875,-0.32779839634895325,-1.5405436754226685,-0.476848840713501
1684099580312100600,2.7501005859375,-0.15252165496349335,-1.7598797082901,-0.46278735995292664
1684099580322118700,2.76011865234375,-0.06471451371908188,-2.133328437805176,-0.44512420892715454
1684099580332137500,2.770137451171875,-0.02206425927579403,-2.469329357147217,-0.4902152717113495
1684099580342155800,2.78015576171875,-0.07294898480176926,-2.6442062854766846,-0.5447087287902832
1684099580352174800,2.7901748046875,-0.19700703024864197,-2.4547741413116455,-0.5966739058494568
1684099580362192600,2.800192626953125,-0.29560840129852295,-1.9529613256454468,-0.642461895942688
1684099580372210700,2.810210693359375,-0.2764277756214142,-1.2120044231414795,-0.6863473653793335
1684099580382229800,2.820229736328125,-0.28649699687957764,-0.6936620473861694,-0.8621390461921692
1684099580392247600,2.83024755859375,-0.2867686450481415,-0.5319093465805054,-1.0400155782699585
1684099580402266600,2.8402666015625,-0.25360795855522156,-0.47916096448898315,-1.1452480554580688
1684099580412284700,2.85028466796875,-0.25353550910949707,-0.034603215754032135,-0.995940625667572
1684099580422302700,2.860302734375,-0.26575401425361633,0.59144127368927,-0.717278778553009
1684099580432321800,2.87032177734375,-0.20509733259677887,0.9654550552368164,-0.6487228870391846
1684099580442339600,2.880339599609375,-0.14796221256256104,0.9562734961509705,-0.9417621493339539
1684099580452358700,2.890358642578125,-0.12597090005874634,1.0649597644805908,-1.3307764530181885
1684099580462376700,2.900376708984375,-0.05708587169647217,1.6806163787841797,-1.5730657577514648
1684099580472395800,2.910395751953125,0.15772123634815216,2.4870383739471436,-1.5775675773620605
1684099580482413800,2.920413818359375,0.5371315479278564,3.4108705520629883,-1.3390045166015625
1684099580492431600,2.930431640625,0.9718862175941467,4.328627109527588,-1.0217013359069824
1684099580502451500,2.940451416015625,1.1593278646469116,4.722979545593262,-0.8437443375587463
1684099580512469200,2.95046923828125,1.0544222593307495,4.308788299560547,-0.9530550837516785
1684099580522488300,2.96048828125,0.7499145269393921,3.3333396911621094,-1.2406896352767944
1684099580532506000,2.970506103515625,0.3928346633911133,2.387768268585205,-1.3404103517532349
1684099580542525200,2.980525146484375,0.26875340938568115,1.9524459838867188,-1.1961314678192139
1684099580552543500,2.99054345703125,0.3749474883079529,1.8989681005477905,-1.0981439352035522
1684099580562561300,3.000561279296875,0.6764947175979614,2.283402919769287,-1.2423948049545288
1684099580572580400,3.010580322265625,0.9894201159477234,2.9537744522094727,-1.6015915870666504
1684099580582598100,3.02059814453125,1.1439149379730225,3.9777801036834717,-1.8274248838424683
1684099580592617200,3.0306171875,1.1358314752578735,4.684257507324219,-1.8306035995483398
1684099580602635300,3.04063525390625,0.8873315453529358,4.280324935913086,-1.4050021171569824
1684099580612653300,3.0506533203125,0.619902491569519,3.4285199642181396,-0.677948534488678
1684099580622672400,3.06067236328125,0.3473322093486786,2.3072476387023926,-0.2966768145561218
1684099580632690400,3.0706904296875,0.1340460330247879,1.3307173252105713,-0.221293643116951
1684099580642709200,3.080709228515625,-0.012514041736721992,0.9397799968719482,-0.21446433663368225
1684099580652727300,3.090727294921875,-0.11756163090467453,0.9307755827903748,-0.20568256080150604
1684099580662745300,3.100745361328125,-0.2191510647535324,0.9654096961021423,-0.23866361379623413
1684099580672764400,3.110764404296875,-0.42225381731987,0.8662213683128357,-0.3597985506057739
1684099580682782500,3.120782470703125,-0.6498911380767822,0.7174539566040039,-0.5204781293869019
1684099580692801300,3.13080126953125,-0.8649600744247437,0.5460262894630432,-0.6348102688789368
1684099580702819300,3.1408193359375,-1.1268270015716553,0.19354304671287537,-0.6816770434379578
1684099580712838400,3.15083837890625,-1.4803760051727295,-0.13814939558506012,-0.6869666576385498
1684099580722856200,3.160856201171875,-1.8708852529525757,-0.3182636499404907,-0.7282355427742004
1684099580732874500,3.17087451171875,-2.1783976554870605,-0.4013921022415161,-0.770561158657074
1684099580742893300,3.180893310546875,-2.3246634006500244,-0.5148520469665527,-0.7986515760421753
1684099580752911400,3.190911376953125,-2.360734701156616,-0.6006582975387573,-0.8082548975944519
1684099580762930400,3.200930419921875,-2.303593158721924,-0.6661722660064697,-0.8317787051200867
1684099580772948200,3.2109482421875,-2.2808616161346436,-0.6856082677841187,-0.8467824459075928
1684099580782967300,3.22096728515625,-2.398332357406616,-0.6774749159812927,-0.8989793062210083
1684099580792985000,3.230985107421875,-2.5665416717529297,-0.6866191029548645,-0.7679824233055115
1684099580803003400,3.24100341796875,-2.8363096714019775,-0.6845037341117859,-0.7404798865318298
1684099580813022500,3.2510224609375,-3.1378979682922363,-0.6757552027702332,-0.7654028534889221
1684099580823040300,3.261040283203125,-3.329739570617676,-0.6696198582649231,-0.7421143054962158
1684099580833059300,3.271059326171875,-3.347492218017578,-0.7151361703872681,-0.6500115394592285
1684099580843077400,3.281077392578125,-3.2074289321899414,-0.6130841374397278,-0.49615204334259033
1684099580853095200,3.29109521484375,-2.9079782962799072,-0.3299458920955658,-0.2666352093219757
1684099580863114200,3.3011142578125,-2.5152101516723633,0.16200311481952667,-0.02986084669828415
1684099580873132300,3.31113232421875,-2.181884765625,0.7028056383132935,0.15733833611011505
1684099580883151400,3.3211513671875,-1.8580986261367798,0.8235002160072327,0.4083641469478607
1684099580893169400,3.33116943359375,-1.5807994604110718,0.7484813928604126,0.7094433307647705
1684099580903188200,3.341188232421875,-1.3933355808258057,0.7956692576408386,0.9981369972229004
1684099580913206300,3.351206298828125,-1.1605902910232544,1.1524993181228638,1.2173644304275513
1684099580923224300,3.361224365234375,-0.8180246353149414,1.51160728931427,1.2243397235870361
1684099580933243400,3.371243408203125,-0.2902747690677643,1.2693922519683838,0.7632561922073364
1684099580943261400,3.381261474609375,0.16845478117465973,0.794609010219574,0.14403341710567474
1684099580953280300,3.3912802734375,0.2111617624759674,0.4588443338871002,-0.3360104262828827
1684099580963298300,3.40129833984375,0.014245515689253807,0.5409772992134094,-0.547555148601532
1684099580973317400,3.4113173828125,-0.2316012680530548,0.7685555815696716,-0.5728070139884949
1684099580983335200,3.421335205078125,-0.41498667001724243,0.7325513362884521,-0.5229844450950623
1684099580993353500,3.431353515625,-0.4317121207714081,0.4787026047706604,-0.46034127473831177
1684099581003372500,3.44137255859375,-0.4622400999069214,0.35351669788360596,-0.39618542790412903
1684099581013390300,3.451390380859375,-0.6108487248420715,0.34022724628448486,-0.3592529892921448
1684099581023409400,3.461409423828125,-0.726906955242157,0.4120783805847168,-0.3874039053916931
1684099581033427200,3.47142724609375,-0.6140610575675964,0.5580922961235046,-0.4657690227031708
1684099581043445200,3.4814453125,-0.42822691798210144,0.5599658489227295,-0.5119441747665405
1684099581053464300,3.49146435546875,-0.3346540927886963,0.5273447632789612,-0.4793279469013214
1684099581063482400,3.501482421875,-0.2689882218837738,0.49080222845077515,-0.39530715346336365
1684099581073501400,3.51150146484375,-0.21009854972362518,0.364131897687912,-0.2948034405708313
1684099581083519200,3.521519287109375,-0.19423992931842804,0.2453022301197052,-0.19934529066085815
1684099581093538300,3.531538330078125,-0.1940322071313858,0.17293322086334229,-0.1325787752866745
1684099581103556400,3.541556396484375,-0.1910318285226822,0.11060477793216705,-0.07701709121465683
1684099581113574100,3.55157421875,-0.16333042085170746,0.07297138124704361,-0.014183533377945423
1684099581123593200,3.56159326171875,-0.11035807430744171,0.054325204342603683,0.022606460377573967
1684099581133611300,3.571611328125,-0.08048646152019501,0.042242974042892456,0.04499565437436104
1684099581143630300,3.58163037109375,0.11091175675392151,-0.059527166187763214,0.12048427760601044
1684099581153648400,3.5916484375,0.13957828283309937,-0.2101781964302063,0.20135994255542755
1684099581163666200,3.601666259765625,0.045480016618967056,-0.19932368397712708,0.16395904123783112
1684099581173685200,3.611685302734375,0.023945961147546768,-0.124407097697258,0.08904566615819931
1684099581183703300,3.621703369140625,0.05370538681745529,-0.06527819484472275,0.048512283712625504
1684099581193722400,3.631722412109375,0.08231332153081894,-0.05326121300458908,0.0389145165681839
1684099581203740400,3.641740478515625,0.07423077523708344,-0.07697013765573502,0.04375947266817093
1684099581213759500,3.651759521484375,0.02431061863899231,-0.09375124424695969,0.06718730181455612
1684099581223777300,3.66177734375,-0.05383100360631943,-0.1202431321144104,0.0775008276104927
1684099581233795300,3.67179541015625,-0.15796113014221191,-0.1120765432715416,0.08806638419628143
1684099581243814100,3.681814208984375,-0.21314825117588043,-0.12395186722278595,0.07072929292917252
1684099581253832400,3.69183251953125,-0.19746196269989014,-0.15789225697517395,0.04163665696978569
1684099581263851500,3.7018515625,-0.0872499942779541,-0.1505942940711975,0.00751225370913744
1684099581273869300,3.711869384765625,0.03401917591691017,-0.0726102739572525,-0.03429485112428665
1684099581283887400,3.721887451171875,0.03297310695052147,0.06451510637998581,-0.06983082741498947
1684099581293906200,3.73190625,-0.045883093029260635,0.1702873408794403,-0.09810694307088852
1684099581303924200,3.74192431640625,-0.05859578773379326,0.1501309871673584,-0.1358756124973297
1684099581313943300,3.751943359375,-0.005998887121677399,0.059247687458992004,-0.14836369454860687
1684099581323961300,3.76196142578125,0.059128522872924805,-0.04722582548856735,-0.11458782106637955
1684099581333980400,3.77198046875,0.09356825798749924,-0.12773025035858154,-0.04999498277902603
1684099581343998500,3.78199853515625,0.11305152624845505,-0.14734818041324615,0.010836191475391388
1684099581354016300,3.792016357421875,0.13740374147891998,-0.12790657579898834,0.022746913135051727
1684099581364035300,3.802035400390625,0.14068719744682312,-0.05610117316246033,0.004005079157650471
1684099581374053000,3.81205322265625,0.1419743001461029,-0.01826244592666626,-0.040296874940395355
1684099581384072200,3.822072265625,0.12640684843063354,0.007344701327383518,-0.07413502037525177
1684099581394090500,3.832090576171875,0.10951840877532959,0.008942332118749619,-0.08622443675994873
1684099581404109300,3.842109375,0.0891597792506218,-0.006270412355661392,-0.06927090138196945
1684099581414127400,3.85212744140625,0.06842333823442459,-0.04226196929812431,-0.03231287747621536
1684099581424145200,3.862145263671875,0.0477345772087574,-0.06774868816137314,0.008581292815506458
1684099581434164200,3.872164306640625,0.05036791041493416,-0.09758540987968445,0.032603271305561066
1684099581444182300,3.882182373046875,0.05301165208220482,-0.08794674277305603,0.038783662021160126
1684099581454201300,3.892201416015625,0.04238910228013992,-0.04834979400038719,0.03014436550438404
1684099581464219400,3.902219482421875,0.02649700455367565,-0.009641099721193314,0.01284942589700222
1684099581474237200,3.9122373046875,0.007415188942104578,0.013601372018456459,0.0053907111287117004
1684099581484256300,3.92225634765625,-0.0035946816205978394,0.011701909825205803,-0.0021460922434926033
1684099581494274300,3.9322744140625,0.005932244472205639,0.09353738278150558,-0.04157525673508644
1684099581504292600,3.942292724609375,-0.05907801166176796,0.18832890689373016,-0.05947530269622803
1684099581514311000,3.952310791015625,-0.09920252859592438,0.2132350504398346,-0.06864296644926071
1684099581524329700,3.962329833984375,-0.11137402057647705,0.237141951918602,-0.07078555971384048
1684099581534347800,3.97234765625,-0.10816198587417603,0.2941463887691498,-0.11059582233428955
1684099581544365600,3.982365478515625,-0.061460718512535095,0.3264954388141632,-0.17046520113945007
1684099581554384600,3.992384521484375,-0.02447526901960373,0.42642098665237427,-0.21532189846038818
1684099581564403000,4.00240283203125,0.0052283708937466145,0.5387744903564453,-0.2742263376712799
1684099581574421800,4.012421875,0.0014847653219476342,0.6114985346794128,-0.28657862544059753
1684099581584439800,4.022439697265625,-0.013560955412685871,0.5385703444480896,-0.2600112855434418
1684099581594459000,4.032458984375,-0.022051112726330757,0.2962580919265747,-0.14724746346473694
1684099581604476700,4.0424765625,-0.0074209189042449,-0.06126691401004791,0.003851195564493537
1684099581614494700,4.05249462890625,0.016704924404621124,-0.32854709029197693,0.10424118489027023
1684099581624513500,4.062513427734375,0.008932802826166153,-0.42321935296058655,0.12742310762405396
1684099581634531800,4.07253173828125,-0.01618240401148796,-0.4144921898841858,0.1274886131286621
1684099581644551000,4.082551025390625,-0.038045529276132584,-0.34251827001571655,0.1296040117740631
1684099581654568700,4.092568603515625,-0.05897317826747894,-0.25514501333236694,0.1278737634420395
1684099581664586800,4.102586669921875,-0.07192699611186981,-0.21016830205917358,0.11678123474121094
1684099581674605800,4.112605712890625,-0.07643306255340576,-0.2214995175600052,0.12588419020175934
1684099581684623600,4.12262353515625,-0.008412121795117855,-0.20925302803516388,0.15359275043010712
1684099581694642700,4.132642578125,0.08085543662309647,-0.08036588132381439,0.16260062158107758
1684099581704660700,4.14266064453125,0.11776895821094513,0.08792004734277725,0.1253952831029892
1684099581714679800,4.1526796875,0.03511669114232063,0.18054930865764618,0.0256631001830101
1684099581724697900,4.16269775390625,-0.09501272439956665,0.10840610414743423,0.014359553344547749
1684099581734715600,4.172715576171875,-0.16152890026569366,-0.09576886892318726,0.11060246080160141
1684099581744734700,4.182734619140625,-0.08341005444526672,-0.3106998801231384,0.21127454936504364
1684099581754752500,4.19275244140625,0.05430253595113754,-0.42831093072891235,0.24956442415714264
1684099581764771600,4.202771484375,0.17596997320652008,-0.40077877044677734,0.20156319439411163
1684099581774790000,4.212789794921875,0.21418367326259613,-0.19908639788627625,0.07800956815481186
1684099581784807700,4.2228076171875,0.17894290387630463,0.036071695387363434,-0.05136210843920708
1684099581794826800,4.23282666015625,0.1235845759510994,0.2371656596660614,-0.13687780499458313
1684099581804844500,4.242844482421875,0.09574156254529953,0.3435248136520386,-0.1836918443441391
1684099581814863600,4.252863525390625,0.07225301861763,0.3202351927757263,-0.17174170911312103
1684099581824882000,4.2628818359375,-0.019236057996749878,0.2032788246870041,-0.10947801917791367
1684099581834900700,4.272900634765625,-0.0437278188765049,-0.0014191889204084873,-0.036472514271736145
1684099581844918800,4.282918701171875,0.29480594396591187,-0.04352359473705292,0.09134291857481003
1684099581854936800,4.292936767578125,-0.011077826842665672,-0.13419677317142487,0.11214087158441544
1684099581864955600,4.30295556640625,-0.38204482197761536,-0.23691967129707336,0.10256197303533554
1684099581874973700,4.3129736328125,-0.24535755813121796,-0.1391739547252655,0.04519960656762123
1684099581884992800,4.32299267578125,0.026273781433701515,0.1064058244228363,-0.053203336894512177
1684099581895010800,4.3330107421875,0.06865745782852173,0.3011675775051117,-0.14163705706596375
1684099581905030000,4.34302978515625,0.06780187785625458,0.3834630846977234,-0.20744957029819489
1684099581915047700,4.353047607421875,0.2815311849117279,0.315755158662796,-0.2627788782119751
1684099581925065700,4.363065673828125,0.6487347483634949,0.17248627543449402,-0.3066517114639282
1684099581935084800,4.373084716796875,0.7498435378074646,0.0325976125895977,-0.3502787947654724
1684099581945102600,4.3831025390625,0.6970000267028809,-0.07475881278514862,-0.3306972086429596
1684099581955121700,4.39312158203125,0.6849143505096436,-0.1398019939661026,-0.25588101148605347
1684099581965139700,4.4031396484375,0.7400550246238708,-0.2551517188549042,-0.2578902542591095
1684099581975157800,4.41315771484375,0.9599292874336243,-0.3857259750366211,-0.2531903088092804
1684099581985176800,4.4231767578125,1.224543809890747,-0.5085085034370422,-0.20107020437717438
1684099581995194600,4.433194580078125,1.4187527894973755,-0.49636849761009216,-0.12820158898830414
1684099582005213700,4.443213623046875,1.4072115421295166,-0.4181320071220398,-0.016099238768219948
1684099582015231700,4.453231689453125,1.354637622833252,-0.31799983978271484,0.14958159625530243
1684099582025250600,4.46325048828125,1.3352129459381104,-0.2847228944301605,0.30967259407043457
1684099582035268900,4.473268798828125,1.2527450323104858,-0.43823227286338806,0.32661908864974976
1684099582045286700,4.48328662109375,1.1244261264801025,-0.5861911177635193,0.21382799744606018
1684099582055305700,4.4933056640625,1.066866159439087,-0.6062231659889221,0.038850851356983185
1684099582065323800,4.50332373046875,1.1516138315200806,-0.5253425240516663,-0.13159173727035522
1684099582075342600,4.513342529296875,1.2678821086883545,-0.42201346158981323,-0.31539565324783325
1684099582085360600,4.523360595703125,1.4282208681106567,-0.2443755716085434,-0.37578490376472473
1684099582095378700,4.533378662109375,1.596010684967041,-0.07383445650339127,-0.3051094114780426
1684099582105397800,4.543397705078125,1.7746679782867432,-0.039135247468948364,-0.22015392780303955
1684099582115415800,4.553415771484375,1.9392870664596558,-0.09966251254081726,-0.16675275564193726
1684099582125434600,4.5634345703125,2.02579927444458,-0.22082281112670898,-0.09368301182985306
1684099582135452700,4.57345263671875,2.062227725982666,-0.3310942053794861,-0.014990600757300854
1684099582145471700,4.5834716796875,2.0457191467285156,-0.3832429051399231,-0.021899545565247536
1684099582155489800,4.59348974609375,2.0235679149627686,-0.2765952944755554,-0.034216929227113724
1684099582165507800,4.6035078125,2.01880145072937,-0.08041156828403473,-0.09247538447380066
1684099582175526700,4.613526611328125,1.902337670326233,0.3293248414993286,-0.31919828057289124
1684099582185544700,4.623544677734375,1.6552455425262451,0.7189993262290955,-0.5335553288459778
1684099582195563800,4.633563720703125,1.512665033340454,1.2142466306686401,-0.6370367407798767
1684099582205581600,4.64358154296875,1.569211483001709,1.4202290773391724,-0.5268491506576538
1684099582215600600,4.6536005859375,1.8036165237426758,1.327380895614624,-0.2370825856924057
1684099582225619000,4.663618896484375,2.101318120956421,1.0333868265151978,0.10375431180000305
1684099582235636700,4.67363671875,2.4280905723571777,0.5153700113296509,0.2915023863315582
1684099582245655800,4.68365576171875,2.5614173412323,0.12211812287569046,0.25197771191596985
1684099582255673600,4.693673583984375,2.346043825149536,0.08492761850357056,0.06557002663612366
1684099582265692700,4.703692626953125,2.1265170574188232,0.20092953741550446,-0.13390502333641052
1684099582275710700,4.713710693359375,1.9141039848327637,0.598360002040863,-0.15035218000411987
1684099582285728800,4.723728759765625,1.741782784461975,1.2159315347671509,-0.04104539006948471
1684099582295747800,4.733747802734375,1.3776931762695312,1.7350983619689941,0.031545720994472504
1684099582305765600,4.743765625,0.9927203059196472,2.1051652431488037,0.08262275904417038
1684099582315784700,4.75378466796875,0.7739179134368896,2.373560905456543,0.014110015705227852
1684099582325802800,4.763802734375,0.6836513876914978,2.574388027191162,-0.2718488574028015
1684099582335821600,4.773821533203125,0.7473456859588623,2.9146859645843506,-0.6899638175964355
1684099582345839600,4.783839599609375,0.7998433113098145,3.583173990249634,-1.0013011693954468
1684099582355858000,4.79385791015625,0.8387808203697205,4.287160396575928,-1.3633661270141602
1684099582365876700,4.803876708984375,0.9370378851890564,4.49114990234375,-1.9392234086990356
1684099582375894800,4.813894775390625,1.2089391946792603,3.480571985244751,-2.195781707763672
1684099582385913900,4.823913818359375,1.528679609298706,1.746935486793518,-1.8087321519851685
1684099582395931600,4.833931640625,1.352715253829956,0.22760362923145294,-1.2837951183319092
1684099582405950000,4.843949951171875,0.7630342841148376,-0.6113628149032593,-0.7963635325431824
1684099582415968800,4.85396875,0.28187882900238037,-0.8013162612915039,-0.5326850414276123
1684099582425986800,4.86398681640625,0.18059083819389343,-0.604415237903595,-0.43444475531578064
1684099582436006000,4.874005859375,0.3577278256416321,-0.34667691588401794,-0.35187211632728577
1684099582446023700,4.884023681640625,0.5656009316444397,0.33560624718666077,-0.422369122505188
1684099582456042800,4.894042724609375,0.7288170456886292,1.2490484714508057,-0.6280916929244995
1684099582466060500,4.904060546875,0.7984462976455688,1.8963967561721802,-0.8303642868995667
1684099582476078800,4.914078857421875,0.8533891439437866,2.223585605621338,-0.847212553024292
1684099582486098000,4.924097900390625,1.0076429843902588,2.072809934616089,-0.607920229434967
1684099582496115700,4.93411572265625,1.136756181716919,1.6128815412521362,-0.19399364292621613
1684099582506134800,4.944134765625,1.1059809923171997,0.7950977087020874,0.20168836414813995
1684099582516152600,4.954152587890625,0.9239352941513062,-0.07962232083082199,0.48621702194213867
1684099582526170600,4.964170654296875,0.6819789409637451,-0.8029721975326538,0.7085893154144287
1684099582536189700,4.974189697265625,0.5113278031349182,-1.2914824485778809,0.8439247608184814
1684099582546207700,4.984207763671875,0.40666574239730835,-1.678737998008728,0.8879732489585876
1684099582556226800,4.994226806640625,0.3195830285549164,-1.9720271825790405,0.9137987494468689
1684099582566244600,5.00424462890625,0.26490041613578796,-2.0028889179229736,0.8746631741523743
1684099582576263700,5.014263671875,0.2819848656654358,-1.7120075225830078,0.7706049084663391
1684099582586281700,5.02428173828125,0.3975179195404053,-1.3961067199707031,0.7868622541427612
1684099582596299800,5.0342998046875,0.6593561768531799,-1.1616151332855225,0.9818415641784668
1684099582606318600,5.044318603515625,0.9998010993003845,-0.8518824577331543,1.2826110124588013
1684099582616336600,5.054336669921875,1.3473221063613892,-0.3778829276561737,1.5544289350509644
1684099582626355700,5.064355712890625,1.6191760301589966,0.33213090896606445,1.6689401865005493
1684099582636373800,5.074373779296875,1.7699216604232788,1.0389375686645508,1.6095657348632812
1684099582646392600,5.084392578125,1.7349798679351807,1.4846763610839844,1.4475786685943604
1684099582656410600,5.09441064453125,1.5572543144226074,1.4875264167785645,1.2230544090270996
1684099582666429000,5.104428955078125,1.3712072372436523,1.0848220586776733,1.0121866464614868
1684099582676447700,5.11444775390625,1.2727370262145996,0.32338854670524597,0.8441883325576782
1684099582686465800,5.1244658203125,1.216282606124878,-0.6097325682640076,0.5801213979721069
1684099582696484900,5.13448486328125,1.126098394393921,-1.5249965190887451,0.1632900983095169
1684099582706502700,5.144502685546875,1.0120058059692383,-1.761772871017456,-0.2509574294090271
1684099582716520700,5.154520751953125,0.8669956922531128,-1.4818434715270996,-0.6635703444480896
1684099582726539500,5.16453955078125,0.7395480871200562,-1.480531930923462,-1.1370699405670166
1684099582736557800,5.174557861328125,0.45210641622543335,-2.176142692565918,-1.5574557781219482
1684099582746577000,5.184576904296875,0.13217739760875702,-2.9753425121307373,-1.720872163772583
1684099582756594700,5.1945947265625,-0.1008068397641182,-3.3193016052246094,-1.354968786239624
1684099582766613800,5.20461376953125,-0.17406180500984192,-3.2195777893066406,-0.6398378610610962
1684099582776631600,5.214631591796875,-0.09614810347557068,-2.753556251525879,0.11745703220367432
1684099582786649600,5.224649658203125,-0.03370515629649162,-2.22149395942688,0.5379261374473572
1684099582796668700,5.234668701171875,-0.0629567876458168,-1.6025962829589844,0.5161832571029663
1684099582806686700,5.244686767578125,-0.1889028549194336,-0.9914794564247131,0.29628920555114746
1684099582816705800,5.254705810546875,-0.1815357506275177,-0.35480600595474243,0.2364029586315155
1684099582826723600,5.2647236328125,-0.08771021664142609,-0.053367502987384796,0.29636964201927185
1684099582836741600,5.27474169921875,0.1442015916109085,0.09064000099897385,0.40999606251716614
1684099582846760700,5.2847607421875,0.3551338016986847,0.18414375185966492,0.6128705739974976
1684099582856778500,5.294778564453125,0.5475064516067505,0.4717334508895874,0.8741351962089539
1684099582866797600,5.304797607421875,0.7048715353012085,1.1004279851913452,0.9778198003768921
1684099582876816000,5.31481591796875,0.9640024304389954,1.2046542167663574,1.2097289562225342
1684099582886834700,5.324834716796875,-0.06265783309936523,0.5651511549949646,1.0301886796951294
1684099582896852700,5.334852783203125,-0.7839776873588562,1.033591389656067,-0.09936101734638214
1684099582906870500,5.34487060546875,-0.7792055010795593,0.5536419749259949,-0.3243701159954071
1684099582916889600,5.3548896484375,-0.5038322806358337,-0.21241526305675507,-0.19347946345806122
1684099582926908000,5.364907958984375,-0.3828561305999756,-0.4826270043849945,-0.11424203962087631
1684099582936926700,5.3749267578125,-0.30468302965164185,-0.5050918459892273,0.009652473963797092
1684099582946944800,5.38494482421875,-0.15071050822734833,-0.31471097469329834,0.2324831485748291
1684099582956962600,5.394962646484375,-0.14119450747966766,-0.010046146810054779,0.5267038345336914
1684099582966981600,5.404981689453125,-0.40643811225891113,0.019136685878038406,0.6820733547210693
1684099582976999700,5.414999755859375,-0.7430664896965027,-0.020817121490836143,0.581451416015625
1684099582987018500,5.4250185546875,-0.9037061929702759,0.08844199031591415,0.3271597623825073
1684099582997036800,5.435036865234375,-0.8632929921150208,0.33694103360176086,0.07521619647741318
1684099583007056000,5.445055908203125,-0.7194329500198364,0.5860109925270081,-0.07906651496887207
1684099583017073700,5.45507373046875,-0.600821852684021,0.6907517910003662,-0.1221146434545517
1684099583027091700,5.465091796875,-0.562500536441803,0.7215936183929443,-0.07717755436897278
1684099583037110800,5.47511083984375,-0.5307407379150391,0.5826340913772583,-0.0032162442803382874
1684099583047128600,5.485128662109375,-0.47639745473861694,0.4323672950267792,0.07648012787103653
1684099583057147600,5.495147705078125,-0.43761783838272095,0.2403283566236496,0.05801776051521301
1684099583067165700,5.505165771484375,-0.44628581404685974,-0.05011577904224396,-0.1332331895828247
1684099583077184800,5.515184814453125,-0.5291796326637268,-0.363609254360199,-0.4013195037841797
1684099583087202800,5.525202880859375,-0.6817297339439392,-0.5673319101333618,-0.6139621734619141
1684099583097220600,5.535220703125,-0.8753348588943481,-0.6366925835609436,-0.7019279599189758
1684099583107239700,5.54523974609375,-1.110987901687622,-0.5849847793579102,-0.7216357588768005
1684099583117257500,5.555257568359375,-1.400329351425171,-0.4602638781070709,-0.7200327515602112
1684099583127276500,5.565276611328125,-1.5986425876617432,-0.3315209150314331,-0.7542018890380859
1684099583137294800,5.575294921875,-1.7336225509643555,-0.19132494926452637,-0.8385093212127686
1684099583147312600,5.585312744140625,-1.742270827293396,-0.08484295755624771,-0.8956515192985535
1684099583157331700,5.595331787109375,-1.6989636421203613,-0.10427311807870865,-0.9186550974845886
1684099583167349500,5.605349609375,-1.5865952968597412,-0.10368716716766357,-0.8732212781906128
1684099583177368600,5.61536865234375,-1.5205252170562744,-0.18387682735919952,-0.7978905439376831
1684099583187386600,5.62538671875,-1.4784579277038574,-0.2872965335845947,-0.6551737785339355
1684099583197405700,5.63540576171875,-1.4085121154785156,-0.4365376830101013,-0.4576311707496643
1684099583207423700,5.645423828125,-1.3646469116210938,-0.6857308745384216,-0.3027121126651764
1684099583217441800,5.65544189453125,-1.350792646408081,-0.9294359683990479,-0.19900648295879364
1684099583227460600,5.665460693359375,-1.3950800895690918,-1.0930198431015015,-0.17699261009693146
1684099583237478700,5.675478759765625,-1.4709973335266113,-1.1553314924240112,-0.2970559000968933
1684099583247497700,5.685497802734375,-1.505853295326233,-0.8729609251022339,-0.3518829047679901
1684099583257515800,5.695515869140625,-1.5692352056503296,-0.4406673014163971,-0.3411610424518585
1684099583267533800,5.705533935546875,-1.5806559324264526,-0.05388110876083374,-0.3046760857105255
1684099583277552600,5.715552734375,-1.6255874633789062,0.18992197513580322,-0.26171958446502686
1684099583287570700,5.72557080078125,-1.663180947303772,0.316120982170105,-0.19348560273647308
1684099583297589800,5.73558984375,-1.7444835901260376,0.3966810703277588,-0.08211860805749893
1684099583307607600,5.745607666015625,-1.8571821451187134,0.4653148949146271,0.04435889050364494
1684099583317626600,5.755626708984375,-1.9963504076004028,0.4318868815898895,0.12225235998630524
1684099583327644700,5.765644775390625,-2.2057597637176514,0.3527516722679138,0.20850501954555511
1684099583337662700,5.775662841796875,-2.432785987854004,0.13574691116809845,0.22899644076824188
1684099583347681800,5.785681884765625,-2.5554637908935547,-0.13976739346981049,0.17718666791915894
1684099583357699600,5.795699462890625,-2.6017239093780518,-0.3636455237865448,0.08556965738534927
1684099583367718700,5.80571875,-2.621020555496216,-0.5697446465492249,-0.04394567757844925
1684099583377736700,5.81573681640625,-2.675598621368408,-0.6367297768592834,-0.11266295611858368
1684099583387754800,5.825754638671875,-2.756347179412842,-0.6526619791984558,-0.1742851734161377
1684099583397773800,5.83577392578125,-2.8064534664154053,-0.6100607514381409,-0.2166547328233719
1684099583407791600,5.84579150390625,-2.723911762237549,-0.4480758011341095,-0.2156672179698944
1684099583417810700,5.855810791015625,-1.7450278997421265,0.3609592318534851,-0.04746195301413536
1684099583427828700,5.865828857421875,0.13294200599193573,1.3113702535629272,0.3458482325077057
1684099583437847600,5.87584765625,1.2532495260238647,0.7420995235443115,0.2193094789981842
1684099583447865600,5.885865478515625,1.1793999671936035,0.11541073769330978,-0.08425432443618774
1684099583457883600,5.895883544921875,0.5104290843009949,0.12511634826660156,-0.19759367406368256
1684099583467902700,5.90590283203125,-0.06638579815626144,0.28893333673477173,-0.19172635674476624
1684099583477920800,5.915920654296875,-0.245585635304451,0.38669371604919434,-0.07677579671144485
1684099583487939600,5.925939697265625,-0.21738235652446747,0.4408297836780548,0.055939510464668274
1684099583497957600,5.93595751953125,-0.20149900019168854,0.29958000779151917,0.11290665715932846
1684099583507976000,5.945975830078125,-0.2012186050415039,-0.04337618499994278,0.15238671004772186
1684099583517995000,5.9559951171875,-0.20598405599594116,-0.3873000144958496,0.22513175010681152
1684099583528012800,5.9660126953125,-0.22505618631839752,-0.6892505884170532,0.33670714497566223
1684099583538031900,5.976031982421875,-0.20774297416210175,-0.8339654207229614,0.4302770495414734
1684099583548050000,5.9860498046875,-0.15511755645275116,-0.7572143077850342,0.456684410572052
1684099583558068700,5.99606884765625,-0.1153605580329895,-0.5689287781715393,0.3728715181350708
1684099583568086800,6.006086669921875,-0.09629777073860168,-0.33430215716362,0.21696257591247559
1684099583578104800,6.016104736328125,-0.08841801434755325,-0.08694162964820862,0.05453398451209068
1684099583588124000,6.0261240234375,-0.08699651062488556,0.10897224396467209,-0.058134377002716064
1684099583598142000,6.036141845703125,-0.0959673672914505,0.1912948191165924,-0.10073883086442947
1684099583608160800,6.046160888671875,-0.10092416405677795,0.14912861585617065,-0.09306222945451736
1684099583618178800,6.0561787109375,-0.09019055962562561,0.037674516439437866,-0.03580852970480919
1684099583628198000,6.066197998046875,-0.05155313014984131,-0.06336779147386551,0.0188594963401556
1684099583638215700,6.076215576171875,-0.029445163905620575,-0.08835010230541229,0.04815879464149475
1684099583648234000,6.08623388671875,-0.03445597365498543,-0.031740959733724594,0.045464325696229935
1684099583658252800,6.096252685546875,-0.04763489216566086,0.009777721017599106,0.024900460615754128
1684099583668270800,6.106270751953125,-0.06226983293890953,0.014572007581591606,0.004521084483712912
1684099583678290000,6.1162900390625,-0.06511195749044418,0.0044421423226594925,-0.0012731547467410564
1684099583688307700,6.1263076171875,-0.053518861532211304,0.005708429962396622,-0.007703115232288837
1684099583698325800,6.13632568359375,-0.03720060735940933,0.0065614404156804085,-0.008514846675097942
1684099583708344600,6.146344482421875,-0.04419917240738869,-0.002718650735914707,0.0007797716534696519
1684099583718363000,6.15636279296875,-0.04031069204211235,-0.03178039565682411,0.012573047541081905
1684099583728382000,6.1663818359375,-0.034504443407058716,-0.024320188909769058,0.005253871437162161
1684099583738399700,6.176399658203125,-0.04109124094247818,0.036237698048353195,-0.020150022581219673
1684099583748418800,6.186418701171875,-0.053330861032009125,0.06762784719467163,-0.02729581668972969
1684099583758436900,6.196436767578125,-0.06165749952197075,0.04254806041717529,-0.014098254963755608
1684099583768455000,6.206454833984375,-0.06239505112171173,0.012796297669410706,0.005623205099254847
1684099583778473700,6.2164736328125,-0.057000819593667984,0.011629832908511162,0.010955119505524635
1684099583788491800,6.22649169921875,-0.05070813372731209,0.023929672315716743,0.0054704658687114716
1684099583798510800,6.2365107421875,-0.04768837243318558,0.02041216939687729,-0.0011818441562354565
1684099583808529000,6.24652880859375,-0.044727254658937454,0.010972022078931332,-0.004693035501986742
1684099583818546700,6.256546630859375,-0.03941824287176132,0.0035348786041140556,-0.00977887399494648
1684099583828565800,6.266565673828125,-0.0319405198097229,0.002972906455397606,-0.012339528650045395
1684099583838583800,6.276583740234375,-0.024226943030953407,0.017464764416217804,-0.018662672489881516
1684099583848603000,6.286602783203125,-0.01827516406774521,0.0323711633682251,-0.027098465710878372
1684099583858621000,6.296620849609375,-0.019231772050261497,0.047263555228710175,-0.031009316444396973
1684099583868639700,6.3066396484375,-0.01811123453080654,0.05953061580657959,-0.03237263858318329
1684099583878657800,6.31665771484375,-0.021144840866327286,0.06397011131048203,-0.02534348890185356
1684099583888675800,6.32667578125,-0.021647430956363678,0.06416553258895874,-0.015789374709129333
1684099583898694700,6.336694580078125,-0.02382243424654007,0.058533214032649994,-0.005169754382222891
1684099583908713000,6.346712890625,-0.027352381497621536,0.05115126818418503,0.006734992377460003
1684099583918732000,6.35673193359375,-0.029929788783192635,0.04572054743766785,0.014818752184510231
1684099583928749800,6.366749755859375,-0.035949863493442535,0.040825799107551575,0.01356714777648449
1684099583938768000,6.376767822265625,-0.04218458756804466,0.043916136026382446,0.011859795078635216
1684099583948786700,6.38678662109375,-0.030277425423264503,0.044279828667640686,0.003836166113615036
1684099583958804700,6.3968046875,-0.017472147941589355,0.030551498755812645,-0.00031010911334306
1684099583968823800,6.40682373046875,-0.005758477374911308,0.017415475100278854,0.010198364965617657
1684099583978841900,6.416841796875,0.0052773961797356606,0.012682239525020123,0.03917409107089043
1684099583988861000,6.42686083984375,0.00132705585565418,0.0028609586879611015,0.06618399173021317
1684099583998878700,6.436878662109375,-0.0031188251450657845,-0.03790378198027611,0.06726948916912079
1684099584008896800,6.446896728515625,0.004486194346100092,-0.08891254663467407,0.059692319482564926
1684099584018915800,6.456915771484375,0.04226313531398773,-0.09315629303455353,0.07203260809183121
1684099584028934000,6.466933837890625,0.09373334795236588,-0.04899578168988228,0.09954853355884552
1684099584038952700,6.47695263671875,0.12399351596832275,0.020823778584599495,0.11093620955944061
1684099584048970800,6.486970703125,0.12152685225009918,0.0671415627002716,0.09719973057508469
1684099584058988800,6.49698876953125,0.07535190135240555,0.07351264357566833,0.09129203855991364
1684099584069008000,6.5070078125,0.026509447023272514,0.03574347496032715,0.08289991319179535
1684099584079025700,6.517025634765625,-0.01191197894513607,-0.030638212338089943,0.05736153572797775
1684099584089044700,6.527044677734375,-0.027340324595570564,-0.08306477963924408,0.026125619187951088
1684099584099063000,6.53706298828125,-0.02593098022043705,-0.09220688045024872,-0.009907483123242855
1684099584109081900,6.547081787109375,-0.02002832479774952,-0.058016933500766754,-0.040131788700819016
1684099584119100000,6.557099853515625,0.0032578222453594208,-0.022874925285577774,-0.06741774082183838
1684099584129117700,6.56711767578125,0.03442874550819397,0.00415478739887476,-0.06301455199718475
1684099584139136800,6.57713671875,0.05608876794576645,0.001075906679034233,-0.03956647962331772
1684099584149154800,6.58715478515625,0.05615880712866783,-0.015400804579257965,-0.013561778701841831
1684099584159173600,6.597173583984375,0.04308827966451645,-0.015650607645511627,0.0031215937342494726
1684099584169192000,6.60719189453125,0.013648221269249916,0.0015227757394313812,0.01818607747554779
1684099584179211000,6.6172109375,-0.020543038845062256,0.018638646230101585,0.019430305808782578
1684099584189228800,6.627228759765625,-0.0444013848900795,0.019897762686014175,0.01452171616256237
1684099584199246800,6.637246826171875,-0.05409395694732666,0.007361464202404022,0.005659249145537615
1684099584209265700,6.647265625,-0.06606384366750717,0.0051533980295062065,-0.015486597083508968
1684099584219283700,6.65728369140625,-0.07012010365724564,0.013631570152938366,-0.029294021427631378
1684099584229302800,6.667302734375,-0.07640163600444794,0.0209293644875288,-0.04356956109404564
1684099584239320800,6.67732080078125,-0.07110567390918732,0.03625479340553284,-0.04699385538697243
1684099584249339000,6.6873388671875,-0.06999845057725906,0.055341556668281555,-0.051520660519599915
1684099584259358000,6.69735791015625,-0.06021213158965111,0.06750793755054474,-0.04623162001371384
1684099584269375700,6.707375732421875,-0.05999898165464401,0.0774482786655426,-0.035378385335206985
1684099584279394800,6.717394775390625,-0.054782647639513016,0.06726488471031189,-0.01868249475955963
1684099584289412900,6.727412841796875,-0.05475001037120819,0.04943384230136871,-0.0018888310296460986
1684099584299431700,6.737431640625,-0.05908084288239479,0.018169131129980087,0.01957784593105316
1684099584309450000,6.747449951171875,-0.07250383496284485,-0.008684986270964146,0.02844817191362381
1684099584319467800,6.7574677734375,-0.09113077819347382,-0.03165395185351372,0.037632085382938385
1684099584329486800,6.76748681640625,-0.0979229062795639,-0.047347161918878555,0.030354196205735207
1684099584339504600,6.777504638671875,-0.09079042822122574,-0.042657334357500076,0.024708295240998268
1684099584349523700,6.787523681640625,-0.08106420189142227,-0.024057455360889435,0.017619283869862556
1684099584359542000,6.7975419921875,-0.06260157376527786,-0.005603613331913948,0.018439006060361862
1684099584369559800,6.807559814453125,-0.05361746624112129,0.027798082679510117,0.017014145851135254
1684099584379579000,6.817578857421875,-0.05968361347913742,0.059207137674093246,0.013893986120820045
1684099584389596700,6.8275966796875,-0.0723377913236618,0.06983684748411179,0.013735935091972351
1684099584399615700,6.83761572265625,-0.09453896433115005,0.06549030542373657,0.014643806964159012
1684099584409633800,6.8476337890625,-0.11041507124900818,0.04027608782052994,0.010340125299990177
1684099584419652600,6.857652587890625,-0.11997954547405243,0.01597660779953003,0.0022782040759921074
1684099584429671000,6.8676708984375,-0.11932293325662613,-0.0010850466787815094,-0.005643333774060011
1684099584439689000,6.87768896484375,-0.11055953055620193,-0.000987309031188488,-0.013393399305641651
1684099584449707800,6.887707763671875,-0.09377728402614594,0.018928151577711105,-0.016023918986320496
1684099584459725800,6.897725830078125,-0.07333885878324509,0.04611103609204292,-0.012978860177099705
1684099584469745000,6.907744873046875,-0.05155298486351967,0.05909661576151848,-0.005497554782778025
1684099584479762700,6.9177626953125,-0.03192149102687836,0.06432387232780457,0.004251479171216488
1684099584489781800,6.92778173828125,-0.026311058551073074,0.05476826801896095,0.010762480087578297
1684099584499799800,6.9377998046875,-0.019955690950155258,0.02882561832666397,0.027325743809342384
1684099584509817600,6.947817626953125,-0.004992892034351826,-0.016275450587272644,0.060021430253982544
1684099584519836700,6.957836669921875,0.0026349343825131655,-0.07665863633155823,0.0920717790722847
1684099584529854700,6.967854736328125,-0.0050730025395751,-0.1385030448436737,0.11879044771194458
1684099584539873500,6.97787353515625,-0.01025285106152296,-0.15572623908519745,0.14125260710716248
1684099584549891600,6.9878916015625,-0.012056779116392136,-0.11952472478151321,0.16037283837795258
1684099584559909600,6.99790966796875,-0.012057045474648476,-0.07084506750106812,0.15401479601860046
1684099584569928700,7.0079287109375,-0.016493776813149452,-0.015007682144641876,0.11945920437574387
1684099584579946800,7.01794677734375,-0.017881285399198532,0.023387910798192024,0.06479436159133911
1684099584589965600,7.027965576171875,-0.01377737708389759,0.020807020366191864,0.0006918980507180095
1684099584599983600,7.037983642578125,-0.006139963399618864,-0.007791867014020681,-0.03877987712621689
1684099584610002700,7.048002685546875,-0.0030821471009403467,-0.03829427808523178,-0.03839503973722458
1684099584620020700,7.058020751953125,-0.00612986832857132,-0.053603190928697586,-0.020073290914297104
1684099584630038800,7.068038818359375,-0.006789919454604387,-0.029332589358091354,-0.013664091005921364
1684099584640057900,7.078057861328125,-0.00862217415124178,0.023363113403320312,-0.021621350198984146
1684099584650075600,7.08807568359375,-0.00029621206340380013,0.06359920650720596,-0.03356264904141426
1684099584660094700,7.0980947265625,0.006708966568112373,0.07972491532564163,-0.037078820168972015
1684099584670112500,7.108112548828125,0.008180215954780579,0.07109611481428146,-0.023508988320827484
1684099584680130800,7.118130859375,0.008740012533962727,0.03774002939462662,-0.008253335952758789
1684099584690150000,7.12814990234375,0.0031309134792536497,-0.005780762527137995,0.0032499004155397415
1684099584700167700,7.138167724609375,-0.0031309770420193672,-0.049695223569869995,0.008523225784301758
1684099584710186800,7.148186767578125,-0.010230218060314655,-0.09342186152935028,0.01392592117190361
1684099584720204500,7.15820458984375,-0.022063974291086197,-0.09105564653873444,-0.00825181882828474
1684099584730223600,7.1682236328125,-0.011315647512674332,-0.05191042274236679,-0.040889427065849304
1684099584740241700,7.17824169921875,0.007498254533857107,0.01329654548317194,-0.05965619161725044
1684099584750259700,7.188259765625,0.02046080492436886,0.0661199614405632,-0.06528554111719131
1684099584760278800,7.19827880859375,0.03360616788268089,0.09181626886129379,-0.06649754196405411
1684099584770296600,7.208296630859375,0.04019492492079735,0.10091905295848846,-0.07232928276062012
1684099584780315600,7.218315673828125,0.045350003987550735,0.10170868039131165,-0.07264406979084015
1684099584790333700,7.228333740234375,0.054432764649391174,0.07926226407289505,-0.06026161462068558
1684099584800351700,7.238351806640625,0.06329123675823212,0.021842649206519127,-0.037143249064683914
1684099584810370600,7.24837060546875,0.0684213787317276,-0.04721900820732117,-0.026457708328962326
1684099584820388900,7.258388916015625,0.0746220126748085,-0.09252577275037766,-0.021634723991155624
1684099584830407700,7.26840771484375,0.077227383852005,-0.09544965624809265,-0.02437271922826767
1684099584840425700,7.27842578125,0.08078403770923615,-0.09451861679553986,-0.02153938263654709
1684099584850444800,7.28844482421875,0.09717180579900742,-0.10359427332878113,-0.024258285760879517
1684099584860462600,7.298462646484375,0.11294810473918915,-0.11457395553588867,-0.018542077392339706
1684099584870481000,7.30848095703125,0.13183440268039703,-0.11702077835798264,-0.009808135218918324
1684099584880499700,7.318499755859375,0.13941508531570435,-0.1307762712240219,0.0035923579707741737
1684099584890517800,7.328517822265625,0.14067639410495758,-0.13718777894973755,0.008221709169447422
1684099584900536800,7.338536865234375,0.13624677062034607,-0.12170389294624329,0.007384144701063633
1684099584910554600,7.3485546875,0.12634067237377167,-0.08914495259523392,0.008109125308692455
1684099584920573700,7.35857373046875,0.11626087874174118,-0.05526368319988251,0.007480619475245476
1684099584930591500,7.368591552734375,0.10062483698129654,-0.03428765758872032,-0.001282036886550486
1684099584940609800,7.37860986328125,0.090589240193367,-0.02831391990184784,-0.005385967902839184
1684099584950628900,7.38862890625,0.08175032585859299,-0.03014058992266655,-0.009921817108988762
1684099584960646700,7.398646728515625,0.07158344238996506,-0.035163313150405884,-0.008437370881438255
1684099584970665700,7.408665771484375,0.06617865711450577,-0.03472379595041275,-0.008151290006935596
1684099584980683800,7.418683837890625,0.06070959195494652,-0.03518984839320183,-0.008588847704231739
1684099584990701600,7.42870166015625,0.06166321784257889,-0.027489908039569855,0.0016741992440074682
1684099585000720600,7.438720703125,0.061042435467243195,-0.01482204906642437,0.0024063021410256624
1684099585010738700,7.44873876953125,0.05610169470310211,-0.006558832712471485,0.0024416414089500904
1684099585020757800,7.4587578125,0.043665796518325806,0.0006442191079258919,0.004218236543238163
1684099585030775800,7.46877587890625,0.030530262738466263,-0.003009798936545849,0.011565642431378365
1684099585040794600,7.478794677734375,0.021631043404340744,-0.015570065006613731,0.015053585171699524
1684099585050812700,7.488812744140625,0.011272197589278221,-0.025870850309729576,0.01792524941265583
1684099585060830700,7.498830810546875,0.0039000343531370163,-0.02807035483419895,0.020490938797593117
1684099585070849500,7.508849609375,-0.0032159090042114258,-0.027615200728178024,0.018246332183480263
1684099585080867800,7.518867919921875,-0.013682398945093155,-0.021187927573919296,0.00959318969398737
1684099585090886700,7.52888671875,-0.02135010063648224,-0.010819509625434875,0.0007904465310275555
1684099585100904700,7.53890478515625,-0.02388729341328144,-0.005837267730385065,-0.004642935004085302
1684099585110922500,7.548922607421875,-0.032683178782463074,0.0005669770762324333,-0.006646614987403154
1684099585120941600,7.558941650390625,-0.034327149391174316,0.014523539692163467,-0.004550174809992313
1684099585130960000,7.5689599609375,-0.026554014533758163,0.027034301310777664,-0.0029625380411744118
1684099585140978700,7.578978759765625,-0.025893284007906914,0.04386388137936592,-0.00046502548502758145
1684099585150996700,7.588996826171875,-0.021757002919912338,0.052810635417699814,0.01283599529415369
1684099585161015800,7.599015869140625,-0.024585280567407608,0.04857274517416954,0.024036452174186707
1684099585171033600,7.60903369140625,-0.032474417239427567,0.023331109434366226,0.032057300209999084
1684099585181051600,7.6190517578125,-0.04006016254425049,-0.009524841792881489,0.035593181848526
1684099585191070700,7.62907080078125,-0.04645470157265663,-0.034373342990875244,0.026130078360438347
1684099585201088800,7.6390888671875,-0.045208875089883804,-0.0519305020570755,0.01736028864979744
1684099585211107800,7.64910791015625,-0.040517378598451614,-0.05683637410402298,0.010047582909464836
1684099585221125600,7.659125732421875,-0.030239973217248917,-0.0580289401113987,0.01566285826265812
1684099585231144700,7.669144775390625,-0.023752637207508087,-0.07152171432971954,0.026637351140379906
1684099585241162800,7.679162841796875,-0.02159574255347252,-0.07834872603416443,0.026156917214393616
1684099585251180500,7.6891806640625,-0.033486612141132355,-0.053811006247997284,0.0221832487732172
1684099585261199600,7.69919970703125,-0.03580036386847496,-0.0202714204788208,0.019044179469347
1684099585271217700,7.7092177734375,-0.04399089142680168,-0.00803722906857729,0.012735406868159771
1684099585281236700,7.71923681640625,-0.05897489935159683,-0.020202547311782837,0.009822441264986992
1684099585291254800,7.7292548828125,-0.06893733143806458,-0.02516024187207222,0.01656799577176571
1684099585301272600,7.7392724609375,-0.07853270322084427,0.009750869125127792,0.020808281376957893
1684099585311291600,7.749291748046875,-0.08966313302516937,0.0682583674788475,0.007273657713085413
1684099585321309700,7.759309814453125,-0.09387838840484619,0.10789100080728531,-0.0073103453032672405
1684099585331328500,7.76932861328125,-0.09168321639299393,0.1133928894996643,-0.01929783634841442
1684099585341346800,7.779346923828125,-0.08469481766223907,0.09186309576034546,-0.024836411699652672
1684099585351366000,7.789365966796875,-0.06895221769809723,0.04595391824841499,-0.010476334020495415
1684099585361383700,7.7993837890625,-0.05051461607217789,-0.00029932940378785133,0.010970101691782475
1684099585371401700,7.809401611328125,-0.028602132573723793,-0.021543506532907486,0.02937459386885166
1684099585381420500,7.819420654296875,-0.021021177992224693,-0.024555277079343796,0.03050963394343853
1684099585391438800,7.82943896484375,-0.011297441087663174,-0.01928740181028843,0.020033637061715126
1684099585401457700,7.839457763671875,0.0021557833533734083,-0.016072966158390045,0.005576668307185173
1684099585411475700,7.849475830078125,0.021446438506245613,-0.019663523882627487,-0.007271857000887394
1684099585421493800,7.85949365234375,0.04766020178794861,-0.021236920729279518,-0.014867458492517471
1684099585431512600,7.8695126953125,0.06801846623420715,-0.01099745836108923,-0.01501518115401268
1684099585441530600,7.879530517578125,0.07644923776388168,0.0011268490925431252,-0.011338421143591404
1684099585451549700,7.8895498046875,0.0678311288356781,-0.00419321283698082,-0.008094819262623787
1684099585461567700,7.899567626953125,0.053176283836364746,-0.023346401751041412,-0.012247486039996147
1684099585471586800,7.9095869140625,0.03634590655565262,-0.04180637001991272,-0.011287417262792587
1684099585481604600,7.9196044921875,0.021950986236333847,-0.05840105563402176,-0.012892238795757294
1684099585491622700,7.92962255859375,0.01960769295692444,-0.05533893406391144,-0.013063039630651474
1684099585501641700,7.939641845703125,0.022585639730095863,-0.034137774258852005,-0.01732036843895912
1684099585511661300,7.949661376953125,0.030239569023251534,-0.007581391837447882,-0.02052992954850197
1684099585521680100,7.95968017578125,0.030724529176950455,0.02395603060722351,-0.016481924802064896
1684099585531698200,7.9696982421875,0.02316519431769848,0.04529425501823425,-0.013463867828249931
1684099585541717200,7.97971728515625,0.009800121188163757,0.0550914891064167,-0.01057114265859127
1684099585551735000,7.989735107421875,-0.0100477896630764,0.044332146644592285,-0.004318781662732363
1684099585561753300,7.99975341796875,-0.02527308091521263,0.018357807770371437,0.003055777633562684
1684099585571772200,8.009772216796875,-0.039135366678237915,-0.008822680450975895,0.006412159651517868
1684099585581790200,8.019790283203125,-0.04277510941028595,-0.01749473251402378,0.013684986159205437
1684099585591809300,8.029809326171875,-0.04095740243792534,-0.01840410754084587,0.022105425596237183
1684099585601827000,8.0398271484375,-0.033293358981609344,-0.012861802242696285,0.03045470267534256
1684099585611845400,8.049845458984375,-0.027771780267357826,-0.006571767386049032,0.037872567772865295
1684099585621864200,8.0598642578125,-0.024703552946448326,0.003053429536521435,0.030421575531363487
1684099585631882200,8.06988232421875,-0.018719598650932312,0.019447410479187965,0.018697332590818405
1684099585641901300,8.0799013671875,-0.019087115302681923,0.041411299258470535,0.011031956411898136
1684099585651919000,8.089919189453125,-0.023615311831235886,0.04020140692591667,0.0002454480854794383
1684099585661938200,8.099938232421875,-0.025759955868124962,0.018137916922569275,-0.005356777459383011
1684099585671956200,8.109956298828125,-0.027506794780492783,-0.011974913999438286,-0.010537226684391499
1684099585681974300,8.119974365234375,-0.03411383181810379,-0.05076785013079643,-0.001072885119356215
1684099585691993300,8.129993408203125,-0.031864818185567856,-0.07488467544317245,0.01813003420829773
1684099585702011100,8.14001123046875,-0.02196371927857399,-0.07521091401576996,0.023886190727353096
1684099585712030200,8.1500302734375,-0.007041201926767826,-0.03742501884698868,0.025006037205457687
1684099585722048300,8.16004833984375,0.01128294412046671,0.006883587688207626,0.023134633898735046
1684099585732066000,8.170066162109375,0.03314437344670296,0.02238006517291069,0.03280578926205635
1684099585742085000,8.180085205078125,0.048111073672771454,0.011377748101949692,0.04524141922593117
1684099585752103200,8.190103271484375,0.05789816379547119,-0.00843221414834261,0.06443102657794952
1684099585762122200,8.200122314453125,0.05988381430506706,-0.016183611005544662,0.07535424828529358
1684099585772140300,8.210140380859375,0.06574998795986176,-0.03525872901082039,0.08460640162229538
1684099585782159000,8.2201591796875,0.081357441842556,-0.06345921009778976,0.1025683581829071
1684099585792177200,8.23017724609375,0.12459361553192139,-0.12350362539291382,0.12564481794834137
1684099585802195200,8.2401953125,0.19179795682430267,-0.21366654336452484,0.17397107183933258
1684099585812214000,8.250214111328125,0.2511809170246124,-0.3303748369216919,0.23614759743213654
1684099585822232300,8.260232421875,0.29331639409065247,-0.4499979019165039,0.3224973976612091
1684099585832251100,8.270251220703125,0.27916350960731506,-0.529767632484436,0.4137382209300995
1684099585842269200,8.280269287109375,0.1939156949520111,-0.49813008308410645,0.49764057993888855
1684099585852288300,8.290288330078125,0.06680670380592346,-0.3907305896282196,0.5302305817604065
1684099585862306000,8.30030615234375,-0.027528317645192146,-0.27422234416007996,0.5159280300140381
1684099585872324400,8.310324462890625,-0.04606270790100098,-0.21640163660049438,0.46575620770454407
1684099585882343200,8.32034326171875,0.009496423415839672,-0.2413775473833084,0.39563941955566406
1684099585892361200,8.330361328125,0.10778549313545227,-0.3144163191318512,0.3089751899242401
1684099585902380300,8.34038037109375,0.20234182476997375,-0.38360124826431274,0.24186298251152039
1684099585912398000,8.350398193359375,0.2294570952653885,-0.4285680055618286,0.21008507907390594
1684099585922416000,8.360416015625,0.1862848550081253,-0.4384818971157074,0.1974308043718338
1684099585932435200,8.370435302734375,0.10554957389831543,-0.37976446747779846,0.17947149276733398
1684099585942453200,8.380453369140625,0.027286462485790253,-0.2518177032470703,0.13944151997566223
1684099585952472300,8.390472412109375,-0.015056733973324299,-0.10348600894212723,0.08941057324409485
1684099585962490000,8.400489990234375,-0.026332557201385498,-0.014009388163685799,0.03923448547720909
1684099585972509200,8.41050927734375,-0.013207505457103252,0.0015472657978534698,0.018551509827375412
1684099585982527200,8.42052734375,-0.011427182704210281,-0.03834342211484909,0.030240923166275024
1684099585992545000,8.430544921875,-0.025709183886647224,-0.1360434889793396,0.066036656498909
1684099586002564000,8.440564208984375,-0.04512495920062065,-0.23876960575580597,0.1620505303144455
1684099586012582400,8.45058251953125,-0.07789820432662964,-0.33366814255714417,0.27353039383888245
1684099586022601200,8.460601318359375,-0.11493398994207382,-0.39285609126091003,0.3186853528022766
1684099586032619300,8.470619384765625,-0.15294846892356873,-0.37731868028640747,0.27094945311546326
1684099586042638300,8.480638427734375,-0.1686219722032547,-0.3106461763381958,0.16046234965324402
1684099586052656000,8.49065625,-0.14581942558288574,-0.22003966569900513,0.028049439191818237
1684099586062674200,8.500674072265625,-0.09829797595739365,-0.15105819702148438,-0.11234521865844727
1684099586072693000,8.51069287109375,-0.04674375057220459,-0.04764224588871002,-0.21387894451618195
1684099586082711300,8.520711181640625,-0.004462874494493008,0.07395635545253754,-0.26768332719802856
1684099586092730400,8.53073046875,0.040535878390073776,0.16296011209487915,-0.30714258551597595
1684099586102748200,8.540748046875,0.09169121086597443,0.16959404945373535,-0.33714762330055237
1684099586112766200,8.55076611328125,0.17996443808078766,0.1317969709634781,-0.3415735960006714
1684099586122785000,8.560784912109375,0.31311851739883423,0.13292296230793,-0.3083178997039795
1684099586132803300,8.57080322265625,0.45833688974380493,0.21832406520843506,-0.31867000460624695
1684099586142822100,8.580822265625,0.5370221138000488,0.3858603239059448,-0.38669541478157043
1684099586152840200,8.590840087890625,0.4998888075351715,0.6227896809577942,-0.28959494829177856
1684099586162859300,8.600859375,0.40739455819129944,0.70991051197052,0.001285366015508771
1684099586172877000,8.610876953125,0.20360113680362701,0.44790545105934143,0.3085932433605194
1684099586182895000,8.62089501953125,-0.1732524037361145,-0.014470161870121956,0.53483647108078
1684099586192914200,8.6309140625,-0.6616758108139038,-0.5223743319511414,0.6157053709030151
1684099586202932200,8.64093212890625,-1.1456971168518066,-1.235944390296936,0.43673908710479736
1684099586212951300,8.650951416015625,-1.569632887840271,-2.2224631309509277,0.0009682878153398633
1684099586222969300,8.66096923828125,-1.7810015678405762,-2.9145781993865967,-0.4388703405857086
1684099586232988200,8.67098828125,-1.5089043378829956,-2.137925863265991,-0.6677498817443848
1684099586243006200,8.681006103515625,-0.6924372315406799,-0.0183437280356884,-0.6458054184913635
1684099586253024000,8.69102392578125,0.0826849564909935,1.1140007972717285,-0.38213181495666504
1684099586263043000,8.70104296875,0.4686388075351715,1.2014515399932861,-0.12362383306026459
1684099586273061400,8.711061279296874,0.600827693939209,1.0681504011154175,0.09593286365270615
1684099586283080200,8.721080078125,0.5271050333976746,0.9376446604728699,0.22652122378349304
1684099586293098200,8.73109814453125,0.280425488948822,0.8199175000190735,0.21689912676811218
1684099586303116000,8.741115966796874,-0.05649556964635849,0.6963542699813843,0.11330588907003403
1684099586313135000,8.751135009765624,-0.3682067096233368,0.5312179327011108,-0.05537380278110504
1684099586323153200,8.761153076171874,-0.577146053314209,0.3956558406352997,-0.2551308572292328
1684099586333172000,8.771171875,-0.6471734642982483,0.4409047067165375,-0.38939541578292847
1684099586343190300,8.781190185546874,-0.6279310584068298,0.6315603852272034,-0.4281955361366272
1684099586353209300,8.791209228515624,-0.5416252017021179,0.8183758854866028,-0.3909236490726471
1684099586363227100,8.80122705078125,-0.4230934977531433,0.9265569448471069,-0.3370412290096283
1684099586373245200,8.8112451171875,-0.2921493649482727,0.9895638227462769,-0.2511661648750305
1684099586383264300,8.82126416015625,-0.19740261137485504,1.0183911323547363,-0.15504470467567444
1684099586393282000,8.831281982421874,-0.15264834463596344,1.0104824304580688,-0.06855440884828568
1684099586403301000,8.841301025390624,-0.1466549038887024,0.9920522570610046,-0.008585349656641483
1684099586413319200,8.851319091796874,-0.16886582970619202,0.9420693516731262,-0.024085156619548798
1684099586423338200,8.861338134765624,-0.2177649289369583,0.9085172414779663,-0.10796274244785309
1684099586433356300,8.871356201171874,-0.2845039665699005,0.9453554153442383,-0.20152562856674194
1684099586443374000,8.8813740234375,-0.3403107821941376,1.0197029113769531,-0.2505251467227936
1684099586453393200,8.89139306640625,-0.3873409330844879,1.0746924877166748,-0.2271261364221573
1684099586463411200,8.9014111328125,-0.42124083638191223,1.0707837343215942,-0.1305103898048401
1684099586473430300,8.91143017578125,-0.4336594045162201,0.9903494119644165,0.001818438176997006
1684099586483448300,8.9214482421875,-0.4253847002983093,0.9015601277351379,0.1113222986459732
1684099586493466000,8.931466064453126,-0.4052957594394684,0.9384310245513916,0.23323802649974823
1684099586503485200,8.941485107421874,-0.32779592275619507,1.100180745124817,0.3454388678073883
1684099586513502000,8.951501953125,-0.20095328986644745,1.2938870191574097,0.3322643041610718
1684099586523521000,8.96152099609375,-0.09279832988977432,1.5691205263137817,0.2206658571958542
1684099586533538800,8.971538818359376,-0.09327128529548645,1.8922955989837646,0.23312678933143616
1684099586543558000,8.981557861328126,-0.2232939898967743,2.030194044113159,0.5142762064933777
1684099586553575700,8.99157568359375,-0.38649189472198486,1.8680061101913452,0.9593096375465393
1684099586563594000,9.001593994140626,-0.4820983111858368,1.404423713684082,1.258576512336731
1684099586573613000,9.011613037109376,-0.470951110124588,0.8261920809745789,1.2487244606018066
1684099586583630800,9.021630859375,-0.37719106674194336,0.4096148908138275,0.9954037070274353
1684099586593650000,9.03164990234375,-0.25282394886016846,0.26831263303756714,0.6305745840072632
1684099586603668000,9.04166796875,-0.10901807248592377,0.3465927839279175,0.2446678876876831
1684099586613686800,9.051686767578126,0.024411601945757866,0.5165572762489319,-0.057904407382011414
1684099586623704800,9.061704833984376,0.18585935235023499,0.6379769444465637,-0.24209022521972656
1684099586633723000,9.071722900390625,0.35984402894973755,0.6824791431427002,-0.31458520889282227
1684099586643742000,9.081741943359376,0.49083587527275085,0.6645033359527588,-0.3073962926864624
1684099586653760000,9.091760009765625,0.5610096454620361,0.6395851969718933,-0.22233644127845764
1684099586663778800,9.10177880859375,0.5778871178627014,0.6229825019836426,-0.086509108543396
1684099586673796900,9.111796875,0.5350128412246704,0.5788214206695557,0.03272349759936333
1684099586683814700,9.121814697265625,0.4491104185581207,0.5317197442054749,0.09290934354066849
1684099586693833700,9.131833740234375,0.35865193605422974,0.5169851779937744,0.09311439096927643
1684099586703852000,9.14185205078125,0.2767663896083832,0.5481707453727722,0.05583946034312248
1684099586713870800,9.151870849609375,0.1876811683177948,0.6387386918067932,-0.01367186103016138
1684099586723889000,9.161888916015625,0.08456384390592575,0.7778094410896301,-0.08247462660074234
1684099586733908000,9.171907958984375,0.008316352032124996,0.937335729598999,-0.10487878322601318
1684099586743925800,9.18192578125,-0.05444716289639473,1.0617709159851074,-0.0918780267238617
1684099586753943800,9.19194384765625,-0.09256554394960403,1.1225107908248901,-0.05384141951799393
1684099586763962600,9.201962646484375,-0.10337132215499878,1.1635044813156128,0.007926606573164463
1684099586773981000,9.21198095703125,-0.12206371128559113,1.1685694456100464,0.08064543455839157
1684099586784000000,9.222,-0.146428182721138,1.13250732421875,0.13646157085895538
1684099586794017800,9.232017822265625,-0.17959071695804596,1.0575703382492065,0.16257059574127197
1684099586804035800,9.242035888671875,-0.1772567182779312,0.9594035148620605,0.15219812095165253
1684099586814055000,9.252054931640625,-0.1421542763710022,0.8726128339767456,0.13572482764720917
1684099586824073000,9.262072998046875,-0.10114187002182007,0.7627017498016357,0.07480555772781372
1684099586834091800,9.272091796875,-0.05807143449783325,0.6541239023208618,0.006291136611253023
1684099586844109800,9.28210986328125,-0.01845957525074482,0.5972670316696167,-0.022363144904375076
1684099586854129000,9.29212890625,0.02137821353971958,0.5744962692260742,0.011367179453372955
1684099586864147000,9.30214697265625,0.07960769534111023,0.5628364682197571,0.08503234386444092
1684099586874164700,9.312164794921875,0.1396499127149582,0.5327269434928894,0.17154152691364288
1684099586884183800,9.322183837890625,0.2040051966905594,0.45473310351371765,0.261666864156723
1684099586894201900,9.332201904296875,0.2640921175479889,0.3475840091705322,0.33076211810112
1684099586904221000,9.342220947265625,0.28846561908721924,0.22502532601356506,0.37091273069381714
1684099586914239000,9.352239013671875,0.27832430601119995,0.11781138181686401,0.3544462025165558
1684099586924257800,9.3622578125,0.25158244371414185,0.03800151124596596,0.2872445285320282
1684099586934275800,9.37227587890625,0.21722489595413208,-0.04976307228207588,0.19852696359157562
1684099586944293600,9.382293701171875,0.18705953657627106,-0.15796490013599396,0.111300989985466
1684099586954312700,9.392312744140625,0.15942934155464172,-0.24871161580085754,0.025959067046642303
1684099586964331000,9.4023310546875,0.1308584213256836,-0.3118831217288971,-0.040107566863298416
1684099586974348800,9.412348876953125,0.09657273441553116,-0.34316569566726685,-0.06881825625896454
1684099586984366800,9.422366943359375,0.06555064022541046,-0.3235986530780792,-0.06142665818333626
1684099586994386000,9.432385986328125,0.035594768822193146,-0.2569218575954437,-0.030479535460472107
1684099587004403700,9.44240380859375,-0.0046810125932097435,-0.14735835790634155,0.021301638334989548
1684099587014422800,9.4524228515625,-0.05758807063102722,-0.04998708516359329,0.07005786895751953
1684099587024440800,9.46244091796875,-0.09189677238464355,-0.006313641555607319,0.1011662483215332
1684099587034460000,9.4724599609375,-0.10038039833307266,0.016571179032325745,0.0944446548819542
1684099587044478000,9.48247802734375,-0.09691961854696274,0.04097505658864975,0.08477311581373215
1684099587054495700,9.492495849609375,-0.10524594038724899,0.09918953478336334,0.1425873041152954
1684099587064514800,9.502514892578125,-0.13433006405830383,0.12787418067455292,0.2564680576324463
1684099587074532900,9.512532958984375,-0.16586032509803772,0.11504022777080536,0.3711066246032715
1684099587084552000,9.522552001953125,-0.16171512007713318,0.08830342441797256,0.4215277135372162
1684099587094570000,9.532570068359375,-0.1033974438905716,0.08271948248147964,0.3835280239582062
1684099587104588800,9.5425888671875,-0.024326860904693604,0.08070799708366394,0.30546116828918457
1684099587114606800,9.55260693359375,0.060214292258024216,0.06638036668300629,0.2497943937778473
1684099587124625000,9.562625,0.13582275807857513,0.04923013970255852,0.20743203163146973
1684099587134643700,9.572643798828125,0.18902142345905304,0.014814918860793114,0.18729902803897858
1684099587144662000,9.582662109375,0.19412723183631897,-0.03847040608525276,0.18303902447223663
1684099587154681000,9.59268115234375,0.15018504858016968,-0.10942797362804413,0.18070389330387115
1684099587164699000,9.602698974609375,0.07274724543094635,-0.16689419746398926,0.14940136671066284
1684099587174717000,9.612717041015625,-0.012191174551844597,-0.19260777533054352,0.08749914169311523
1684099587184735700,9.62273583984375,-0.0771762952208519,-0.19057497382164001,0.02254091016948223
1684099587194753800,9.63275390625,-0.13476602733135223,-0.18459196388721466,-0.01239074021577835
1684099587204772900,9.64277294921875,-0.17629268765449524,-0.18239353597164154,-0.027390995994210243
1684099587214791000,9.652791015625,-0.21197456121444702,-0.18658700585365295,-0.031918082386255264
1684099587224810000,9.66281005859375,-0.2322225719690323,-0.16666042804718018,-0.035399097949266434
1684099587234827800,9.672827880859375,-0.25229308009147644,-0.1501123309135437,-0.016088830307126045
1684099587244845800,9.682845703125,-0.2499692142009735,-0.14640334248542786,-0.0034787626937031746
1684099587254865000,9.692864990234375,-0.22066958248615265,-0.13838796317577362,0.0020000427030026913
1684099587264882700,9.702882568359374,-0.18957823514938354,-0.14822274446487427,0.010901126079261303
1684099587274901800,9.71290185546875,-0.17402958869934082,-0.18736663460731506,0.022120468318462372
1684099587284919800,9.722919921875,-0.15845409035682678,-0.19916284084320068,0.005214989185333252
1684099587294937900,9.732937744140624,-0.14151531457901,-0.1789083182811737,-0.011730520986020565
1684099587304957000,9.74295703125,-0.1302671879529953,-0.1490952968597412,-0.021689677610993385
1684099587314974700,9.752974609375,-0.12145427614450455,-0.13825638592243195,-0.0290831346064806
1684099587324993800,9.762993896484375,-0.11791733652353287,-0.13855040073394775,-0.03059900552034378
1684099587335011800,9.77301171875,-0.11936955899000168,-0.11057161539793015,-0.0480724573135376
1684099587345031000,9.783031005859375,-0.1267654299736023,-0.08981706947088242,-0.06151662766933441
1684099587355049700,9.7930498046875,-0.1323418915271759,-0.09185194224119186,-0.055010754615068436
1684099587365068000,9.803068115234375,-0.14692935347557068,-0.102106973528862,-0.036538269370794296
1684099587375085800,9.8130859375,-0.16246068477630615,-0.09878338873386383,-0.017373180016875267
1684099587385105000,9.82310498046875,-0.15954266488552094,-0.05941707268357277,-0.005205197259783745
1684099587395122700,9.833122802734374,-0.14870958030223846,-0.04152887687087059,0.0024236473254859447
1684099587405141800,9.843141845703125,-0.12810149788856506,-0.02436773292720318,-0.004867022391408682
1684099587415160000,9.85316015625,-0.12319578975439072,-0.015407764352858067,-0.003173657227307558
1684099587425177900,9.863177734375,-0.12038908898830414,-0.006085635162889957,-0.0024729794822633266
1684099587435197000,9.873197021484375,-0.11758940666913986,-0.004421255551278591,0.0015193072613328695
1684099587445214700,9.883214599609374,-0.10760681331157684,-0.0009572817943990231,0.006956683471798897
1684099587455233800,9.89323388671875,-0.10863064974546432,-0.0032623624429106712,0.011919785290956497
1684099587465251800,9.903251953125,-0.10566655546426773,-0.01038711704313755,0.015253264456987381
1684099587475270700,9.913270751953124,-0.09730640798807144,0.00575238186866045,0.018400078639388084
1684099587485289000,9.9232890625,-0.08362840861082077,0.016448702663183212,0.026056665927171707
1684099587495307000,9.93330712890625,-0.06717196106910706,0.014666762202978134,0.03195246681571007
1684099587505325800,9.943325927734374,-0.059105247259140015,-0.003355382476001978,0.04223679378628731
1684099587515344600,9.9533447265625,-0.06449175626039505,-0.025546563789248466,0.05467623472213745
1684099587525363700,9.96336376953125,-0.08031732589006424,-0.024099135771393776,0.06965465843677521
1684099587535381800,9.9733818359375,-0.09962429851293564,-0.006004010792821646,0.09163979440927505
1684099587545399600,9.983399658203124,-0.1116492748260498,-0.01598260924220085,0.11670680344104767
1684099587555418600,9.993418701171874,-0.11975741386413574,-0.02386518381536007,0.13172407448291779
1684099587565436700,10.003436767578124,-0.12371300160884857,-0.01298484019935131,0.13929890096187592
1684099587575455700,10.013455810546875,-0.11330103874206543,0.014607572928071022,0.1407996565103531
1684099587585473800,10.023473876953124,-0.09172357618808746,0.05347480997443199,0.1357220858335495
1684099587595492600,10.03349267578125,-0.06066174432635307,0.07129593938589096,0.12128932029008865
1684099587605510700,10.0435107421875,-0.037329524755477905,0.08307111263275146,0.10635111480951309
1684099587615528700,10.05352880859375,-0.01586517132818699,0.08720002323389053,0.0966382622718811
1684099587625547500,10.063547607421874,-0.008699670433998108,0.08981764316558838,0.09768275916576385
1684099587635565800,10.07356591796875,0.00335967680439353,0.0853644460439682,0.10176227241754532
1684099587645584600,10.083584716796874,0.0059013981372118,0.07869802415370941,0.09798990935087204
1684099587655602700,10.093602783203124,0.011820055544376373,0.055657871067523956,0.08522447198629379
1684099587665620700,10.103620849609374,0.014799865894019604,0.01987936720252037,0.07498195767402649
1684099587675639600,10.1136396484375,0.00966366846114397,-0.015972800552845,0.0658465325832367
1684099587685657900,10.123657958984374,0.0016954905586317182,-0.048251647502183914,0.05543969199061394
1684099587695677000,10.133677001953124,-0.011931296437978745,-0.05542998015880585,0.03288375213742256
1684099587705694700,10.14369482421875,-0.023071300238370895,-0.05862550809979439,0.01279685739427805
1684099587715713800,10.1537138671875,-0.02965516783297062,-0.06566251814365387,-0.004890076350420713
1684099587725731600,10.163731689453124,-0.03280515596270561,-0.07665977627038956,-0.0163858775049448
1684099587735749600,10.17374951171875,-0.03662443906068802,-0.08789876103401184,-0.0263995248824358
1684099587745768700,10.183768798828124,-0.029430711641907692,-0.08619646728038788,-0.03494640439748764
1684099587755786800,10.193786865234374,-0.01353735476732254,-0.0838528722524643,-0.046775948256254196
1684099587765805800,10.203805908203124,-0.0037430471275001764,-0.09291774034500122,-0.06461966037750244
1684099587775823600,10.21382373046875,0.004278421401977539,-0.1220518946647644,-0.08053730428218842
1684099587785842700,10.2238427734375,0.019535137340426445,-0.15057142078876495,-0.0903041809797287
1684099587795860700,10.23386083984375,0.040346454828977585,-0.15805846452713013,-0.09029379487037659
1684099587805878500,10.24387841796875,0.04628370702266693,-0.1354583501815796,-0.07494919747114182
1684099587815897600,10.253897705078124,0.04181448742747307,-0.1308596283197403,-0.06794653832912445
1684099587825915600,10.26391552734375,0.0373731330037117,-0.13488739728927612,-0.05789603665471077
1684099587835934700,10.273934814453124,0.027298759669065475,-0.13212613761425018,-0.0622587688267231
1684099587845952800,10.283952880859376,0.023992443457245827,-0.12602856755256653,-0.06815287470817566
1684099587855970600,10.293970458984376,0.029398661106824875,-0.13460500538349152,-0.0778137594461441
1684099587865989600,10.30398974609375,0.03912372514605522,-0.15949304401874542,-0.09201054275035858
1684099587876007700,10.314007568359376,0.03983253613114357,-0.19033163785934448,-0.11328870803117752
1684099587886026500,10.324026611328126,0.03399622067809105,-0.22705796360969543,-0.136328786611557
1684099587896044800,10.334044921875,0.01805860549211502,-0.25306326150894165,-0.1400371640920639
1684099587906064000,10.34406396484375,0.009194273501634598,-0.26279205083847046,-0.14384602010250092
1684099587916081700,10.35408154296875,-0.009278790093958378,-0.2842845916748047,-0.14943847060203552
1684099587926099700,10.364099609375,-0.01984221860766411,-0.31529340147972107,-0.14500775933265686
1684099587936118500,10.374118408203126,-0.016881508752703667,-0.30542150139808655,-0.13683171570301056
1684099587946136800,10.38413671875,-0.00829947181046009,-0.26416513323783875,-0.1263524442911148
1684099587956156000,10.394156005859376,-0.016346359625458717,-0.21297001838684082,-0.10853539407253265
1684099587966173700,10.404173583984376,-0.03960401192307472,-0.18960663676261902,-0.09564356505870819
1684099587976192800,10.41419287109375,-0.07279252260923386,-0.22431553900241852,-0.08567386865615845
1684099587986210600,10.42421044921875,-0.09682568162679672,-0.318478524684906,-0.07538527995347977
1684099587996228600,10.434228515625,-0.11329984664916992,-0.4491824805736542,-0.05402570962905884
1684099588006247700,10.44424755859375,-0.12580819427967072,-0.5885336995124817,-0.029382681474089622
1684099588016265700,10.454265625,-0.13278067111968994,-0.7134414911270142,-0.010898549109697342
1684099588026284800,10.464284912109376,-0.11881054192781448,-0.7909658551216125,-0.01067351270467043
1684099588036302800,10.474302734375,-0.1048567071557045,-0.7962753176689148,-0.006625575944781303
1684099588046320600,10.484320556640625,-0.09665843099355698,-0.7855622172355652,0.01921534165740013
1684099588056339700,10.494339599609376,-0.08970741927623749,-0.7852610349655151,0.047892119735479355
1684099588066357500,10.504357421875,-0.08569163829088211,-0.7846447825431824,0.056858982890844345
1684099588076376600,10.51437646484375,-0.09430868178606033,-0.8100910782814026,0.052199285477399826
1684099588086395000,10.524394775390626,-0.0855972170829773,-0.8332781791687012,0.04432831332087517
1684099588096413700,10.53441357421875,-0.07160845398902893,-0.8460894823074341,0.04780534654855728
1684099588106431700,10.544431640625,-0.05438898503780365,-0.8651508092880249,0.06060130149126053
1684099588116449500,10.554449462890625,-0.044420577585697174,-0.8832291960716248,0.07847815006971359
1684099588126468600,10.564468505859375,-0.030634727329015732,-0.856910765171051,0.11144302785396576
1684099588136486700,10.574486572265625,0.0017800343921408057,-0.7686236500740051,0.1405077576637268
1684099588146505500,10.58450537109375,0.044809792190790176,-0.6252331733703613,0.15968304872512817
1684099588156523800,10.594523681640625,0.07179874926805496,-0.4503689110279083,0.18494750559329987
1684099588166542800,10.60454296875,0.05091290920972824,-0.2869248688220978,0.20718516409397125
1684099588176560600,10.614560546875,0.0031431601382791996,-0.2010783702135086,0.22668388485908508
1684099588186578700,10.62457861328125,-0.05138399824500084,-0.25064989924430847,0.2517005503177643
1684099588196597500,10.634597412109375,-0.09596814960241318,-0.4492186903953552,0.2937767803668976
1684099588206615800,10.64461572265625,-0.1328238844871521,-0.7422921657562256,0.32315170764923096
1684099588216634600,10.654634521484375,-0.17980003356933594,-1.055018663406372,0.3168831169605255
1684099588226652700,10.664652587890625,-0.2462885081768036,-1.333410382270813,0.2521856129169464
1684099588236671700,10.674671630859375,-0.3144850730895996,-1.4808743000030518,0.12800896167755127
1684099588246689800,10.684689697265625,-0.35693827271461487,-1.4483213424682617,-0.03766709193587303
1684099588256707600,10.69470751953125,-0.4219162166118622,-1.254677653312683,-0.15530450642108917
1684099588266726700,10.7047265625,-0.475124329328537,-1.1886392831802368,-0.20979784429073334
1684099588276744700,10.71474462890625,-0.4285760521888733,-1.5024970769882202,-0.3014006018638611
1684099588286763800,10.724763671875,-0.28032052516937256,-1.9829643964767456,-0.37758058309555054
1684099588296781800,10.73478173828125,-0.10429079085588455,-2.2551865577697754,-0.4034598171710968
1684099588306800600,10.744800537109375,0.07730376720428467,-2.2253692150115967,-0.3852270245552063
1684099588316818700,10.754818603515625,0.26984161138534546,-1.9136271476745605,-0.24831579625606537
1684099588326836500,10.76483642578125,0.4804143011569977,-1.5975315570831299,0.009952496737241745
1684099588336855600,10.77485546875,0.6529752016067505,-1.4434919357299805,0.3695466220378876
1684099588346873900,10.784873779296875,0.7369076013565063,-1.312496542930603,0.7180672883987427
1684099588356892700,10.794892578125,0.6888821125030518,-1.1919903755187988,0.8225558400154114
1684099588366910700,10.80491064453125,0.5373658537864685,-0.8865697979927063,0.6872731447219849
1684099588376929800,10.8149296875,0.33296722173690796,-0.3857651650905609,0.5171143412590027
1684099588386947600,10.824947509765625,0.1320253163576126,-0.0005538421683013439,0.48787152767181396
1684099588396965600,10.834965576171875,-0.07684739679098129,0.002070371061563492,0.5414075255393982
1684099588406984700,10.844984619140625,-0.3204747140407562,-0.25338616967201233,0.45196497440338135
1684099588417002800,10.855002685546875,-0.5184421539306641,-0.48178383708000183,0.19080716371536255
1684099588427021800,10.865021728515625,-0.5506019592285156,-0.5947830677032471,-0.00038756223511882126
1684099588437039600,10.87503955078125,-0.4002811908721924,-0.7010048627853394,-0.009764991700649261
1684099588447058700,10.88505859375,-0.15257522463798523,-0.8767827749252319,0.040393780916929245
1684099588457076700,10.89507666015625,0.08969836682081223,-1.0933254957199097,0.03804906830191612
1684099588467094800,10.9050947265625,0.29517054557800293,-1.2670317888259888,-0.04303167015314102
1684099588477113600,10.915113525390625,0.5052729249000549,-1.289501667022705,-0.22266393899917603
1684099588487131600,10.925131591796875,0.6985247135162354,-1.0330283641815186,-0.49734291434288025
1684099588497150700,10.935150634765625,0.8143947124481201,-0.4563586711883545,-0.7069236636161804
1684099588507168800,10.945168701171875,0.8534585237503052,0.21113894879817963,-0.7031566500663757
1684099588517185800,10.955185791015625,0.8234970569610596,0.5466976165771484,-0.5589385628700256
1684099588527204900,10.965204833984375,0.7130893468856812,0.46592044830322266,-0.34478551149368286
1684099588537222700,10.97522265625,0.5117979049682617,0.30771222710609436,-0.036554157733917236
1684099588547241700,10.98524169921875,0.2912817895412445,0.26266831159591675,0.3023357391357422
1684099588557259800,10.995259765625,0.10053261369466782,0.2761191427707672,0.4878542125225067
1684099588567278600,11.005278564453125,-0.08021612465381622,0.2883760631084442,0.4673055112361908
1684099588577296600,11.015296630859375,-0.2590745687484741,0.24696843326091766,0.3743644952774048
1684099588587314700,11.025314697265625,-0.4234696626663208,0.10100695490837097,0.30200374126434326
1684099588597333800,11.035333740234375,-0.556061863899231,-0.1525696963071823,0.22015994787216187
1684099588607351800,11.045351806640625,-0.5733795762062073,-0.35583943128585815,0.16913457214832306
1684099588617370600,11.05537060546875,-0.42306146025657654,-0.3855336308479309,0.09184771031141281
1684099588627388700,11.065388671875,-0.10695412009954453,-0.24886554479599,-0.07112176716327667
1684099588637407700,11.07540771484375,0.19494988024234772,-0.02408015727996826,-0.2267317920923233
1684099588647425500,11.085425537109375,0.3342481255531311,0.1842711865901947,-0.27051496505737305
1684099588657443800,11.09544384765625,0.36506831645965576,0.29556065797805786,-0.20214593410491943
1684099588667462700,11.105462646484375,0.33520203828811646,0.18185140192508698,-0.10959310084581375
1684099588677480700,11.115480712890625,0.25531288981437683,-0.1363869309425354,-0.024407479912042618
1684099588687499800,11.125499755859375,0.11581729352474213,-0.5132167935371399,0.012196604162454605
1684099588697517600,11.135517578125,-0.015454128384590149,-0.7209525108337402,-0.023380937054753304
1684099588707536600,11.14553662109375,-0.08488141000270844,-0.6503102779388428,-0.07009170949459076
1684099588717554700,11.1555546875,-0.08587174117565155,-0.41570672392845154,-0.04865294694900513
1684099588727572700,11.16557275390625,-0.05011933669447899,-0.2060733288526535,0.01721741445362568
1684099588737591800,11.175591796875,-0.009155559353530407,-0.10378894209861755,0.08541596680879593
1684099588747609600,11.185609619140624,0.04645656794309616,-0.09692304581403732,0.11535389721393585
1684099588757628700,11.195628662109375,0.057023871690034866,-0.17560745775699615,0.0686824768781662
1684099588767646700,11.205646728515624,0.0484791174530983,-0.22719848155975342,-0.026339638978242874
1684099588777665500,11.21566552734375,0.04145938903093338,-0.21041008830070496,-0.1031041294336319
1684099588787683800,11.225683837890625,0.037226561456918716,-0.1915932595729828,-0.07038053870201111
1684099588797701600,11.23570166015625,0.035058099776506424,-0.2645614445209503,0.1031426265835762
1684099588807720700,11.245720703125,0.03197735175490379,-0.3891606330871582,0.3213026523590088
1684099588817738800,11.25573876953125,0.03506966680288315,-0.3299354016780853,0.49950742721557617
1684099588827757600,11.265757568359374,0.07821021974086761,-0.16325455904006958,0.5823932886123657
1684099588837775600,11.275775634765624,0.1234363317489624,-0.0918615460395813,0.5534846186637878
1684099588847794700,11.285794677734375,0.13805387914180756,-0.16604602336883545,0.4311922490596771
1684099588857812700,11.295812744140624,0.14363493025302887,-0.31027528643608093,0.24257731437683105
1684099588867830800,11.305830810546874,0.11754234880208969,-0.40965139865875244,-0.00606126431375742
1684099588877849600,11.315849609375,0.10923473536968231,-0.3579121530056,-0.27817386388778687
1684099588887867600,11.32586767578125,0.12346240878105164,-0.11958187818527222,-0.4395254850387573
1684099588897886700,11.33588671875,0.0969025269150734,0.09806331992149353,-0.4412730932235718
1684099588907904500,11.345904541015624,-0.00022588353022001684,0.15748296678066254,-0.268656849861145
1684099588917923600,11.355923583984374,-0.1335998773574829,0.1230601966381073,0.023468930274248123
1684099588927942000,11.36594189453125,-0.1903880536556244,0.152017280459404,0.22387392818927765
1684099588937959700,11.375959716796874,-0.18144208192825317,0.21616804599761963,0.27312958240509033
1684099588947978800,11.385978759765624,-0.15129083395004272,0.21702797710895538,0.20633083581924438
1684099588957996500,11.39599658203125,-0.1262679398059845,0.14271710813045502,0.07152078300714493
1684099588968015600,11.406015625,-0.09985418617725372,0.037154726684093475,-0.0911506861448288
1684099588978033700,11.41603369140625,-0.06624564528465271,0.0026691537350416183,-0.26390737295150757
1684099588988052500,11.426052490234374,-0.01866055093705654,0.04834316670894623,-0.3957820236682892
1684099588998070800,11.43607080078125,0.032829467207193375,0.1413208395242691,-0.41417229175567627
1684099589008088600,11.446088623046874,0.049382880330085754,0.21983057260513306,-0.2665788531303406
1684099589018107600,11.456107666015624,0.0023685679771006107,0.19472408294677734,-0.03929607942700386
1684099589028125700,11.466125732421874,-0.049196090549230576,0.11126087605953217,0.12920531630516052
1684099589038144500,11.47614453125,-0.055029504001140594,0.07699915021657944,0.17808765172958374
1684099589048162800,11.486162841796874,-0.02707936055958271,0.05936609208583832,0.1433917135000229
1684099589058182000,11.496181884765624,0.0060473838821053505,0.024055182933807373,0.061937104910612106
1684099589068199700,11.50619970703125,0.02021673135459423,-0.007566393353044987,-0.041935499757528305
1684099589078217700,11.5162177734375,0.03368932753801346,-0.0034758332185447216,-0.16088159382343292
1684099589088236500,11.526236572265624,0.036432117223739624,0.039800532162189484,-0.26737338304519653
1684099589098254600,11.536254638671876,0.0329602025449276,0.09301307052373886,-0.32956257462501526
1684099589108273700,11.546273681640624,0.0176257211714983,0.11826276034116745,-0.32947471737861633
1684099589118291700,11.556291748046876,-0.0025497812312096357,0.10791326314210892,-0.2660923898220062
1684099589128309800,11.566309814453126,-0.013692979700863361,0.07810370624065399,-0.1657407432794571
1684099589138328800,11.576328857421874,-0.01619199477136135,0.04211236536502838,-0.07731103897094727
1684099589148346600,11.5863466796875,-0.009373503737151623,0.01845204457640648,-0.03417075797915459
1684099589158365700,11.59636572265625,-0.015326755121350288,-0.009807964786887169,-0.03593545779585838
1684099589168383500,11.606383544921876,-0.023428091779351234,-0.02665645256638527,-0.056764308363199234
1684099589178402600,11.616402587890626,-0.017959196120500565,-0.024174168705940247,-0.07307033240795135
1684099589188420900,11.6264208984375,-0.0016747646732255816,0.010748662985861301,-0.08526867628097534
1684099589198439700,11.636439697265626,0.012315546162426472,0.060120925307273865,-0.08325733989477158
1684099589208457700,11.646457763671876,0.0039004897698760033,0.0962752029299736,-0.07682261615991592
1684099589218475500,11.6564755859375,-0.00913994386792183,0.11287988722324371,-0.06794009357690811
1684099589228494600,11.66649462890625,-0.014714471995830536,0.12839412689208984,-0.056344952434301376
1684099589238512600,11.6765126953125,-0.01049880962818861,0.1301843225955963,-0.0398123599588871
1684099589248531500,11.686531494140626,-0.014704473316669464,0.0981997549533844,-0.024867767468094826
1684099589258549800,11.6965498046875,-0.019724436104297638,0.034462686628103256,-0.014329846948385239
1684099589268567800,11.70656787109375,-0.027959195896983147,-0.03195521980524063,0.005739468615502119
1684099589278586600,11.716586669921876,-0.034197915345430374,-0.06858845800161362,0.021161649376153946
1684099589288604700,11.726604736328126,-0.03001302480697632,-0.07550415396690369,0.029648344963788986
1684099589298623700,11.736623779296876,-0.018731463700532913,-0.061623092740774155,0.021073903888463974
1684099589308641800,11.746641845703126,-0.003173277247697115,-0.03480159863829613,0.00882815569639206
1684099589318660900,11.756660888671876,0.016535809263586998,-0.013751612044870853,-0.008971821516752243
1684099589328678700,11.7666787109375,0.026946373283863068,0.005825551226735115,-0.02026282623410225
1684099589338697700,11.77669775390625,0.026941481977701187,0.019832085818052292,-0.0292047131806612
1684099589348715800,11.7867158203125,0.021342186257243156,0.021348223090171814,-0.028572479262948036
1684099589358733600,11.796733642578126,0.012063030153512955,-0.0012906817719340324,-0.01267974078655243
1684099589368752600,11.806752685546876,0.003094835439696908,-0.03377378731966019,0.012740664184093475
1684099589378770700,11.816770751953126,-0.002047657035291195,-0.07899805903434753,0.024584079161286354
1684099589388789800,11.826789794921876,-0.005594987887889147,-0.11796809732913971,0.017194073647260666
1684099589398807800,11.836807861328126,0.0037214055191725492,-0.12468259036540985,0.0035556182265281677
1684099589408825600,11.84682568359375,0.013200128450989723,-0.0981026440858841,-0.015477728098630905
1684099589418844700,11.8568447265625,0.019837500527501106,-0.034242600202560425,-0.004245567601174116
1684099589428862500,11.866862548828125,0.027212325483560562,0.031811248511075974,0.018190233036875725
1684099589438881500,11.876881591796876,0.012768574059009552,0.06718938797712326,0.01825675368309021
1684099589448899800,11.88689990234375,-0.021742796525359154,0.07781193405389786,0.00307913264259696
1684099589458918700,11.896918701171876,-0.044981878250837326,0.06319057196378708,-0.009110838174819946
1684099589468936700,11.906936767578125,-0.05727396532893181,0.03646761551499367,-0.005794404074549675
1684099589478954800,11.916954833984375,-0.06410630792379379,-0.014397162944078445,-0.011699963361024857
1684099589488973600,11.9269736328125,-0.07356824725866318,-0.056204263120889664,-0.02043912559747696
1684099589498991600,11.93699169921875,-0.07253864407539368,-0.06543595343828201,-0.03420421853661537
1684099589509011500,11.947011474609376,-0.05897889658808708,-0.037828557193279266,-0.04863029718399048
1684099589519029500,11.957029541015626,-0.04765782505273819,-0.026387512683868408,-0.05053284764289856
1684099589529048300,11.96704833984375,-0.029756320640444756,-0.04418621584773064,-0.033764250576496124
1684099589539066600,11.977066650390626,-0.005186215974390507,-0.07178916782140732,-0.02599378488957882
1684099589549084400,11.98708447265625,0.01098556350916624,-0.07704571634531021,-0.029574938118457794
1684099589559103500,11.997103515625,0.026548469439148903,-0.05827103555202484,-0.04190579056739807
1684099589569121300,12.007121337890625,0.03858515992760658,-0.028754692524671555,-0.051792241632938385
1684099589579140400,12.017140380859376,0.058700863271951675,-0.006133088376373053,-0.04481007158756256
1684099589589158700,12.02715869140625,0.06455635279417038,0.0020702462643384933,-0.029441501945257187
1684099589599177500,12.037177490234376,0.06345361471176147,-0.006206372287124395,-0.01571560464799404
1684099589609195500,12.047195556640625,0.05920427292585373,-0.013786528259515762,-0.010713656432926655
1684099589619214600,12.057214599609376,0.05880332365632057,-0.022471658885478973,0.004896347876638174
1684099589629232400,12.067232421875,0.05801209807395935,-0.030118394643068314,0.01614980213344097
1684099589639250400,12.07725048828125,0.05628474801778793,-0.03116103820502758,0.02743929997086525
1684099589649269200,12.087269287109375,0.047454237937927246,-0.020408792421221733,0.021575285121798515
1684099589659287600,12.09728759765625,0.04315962269902229,0.004706414416432381,0.013392455875873566
1684099589669306600,12.107306640625,0.041495148092508316,0.018944472074508667,0.0033949492499232292
1684099589679324400,12.117324462890625,0.0329192616045475,0.02062680944800377,-0.002823090646415949
1684099589689343500,12.127343505859375,0.013528251089155674,0.005546926520764828,0.003670761361718178
1684099589699361300,12.137361328125,-0.010668286122381687,-0.007753690704703331,0.04798624664545059
1684099589709379300,12.14737939453125,-0.04427391663193703,-0.0022907485254108906,0.1435982584953308
1684099589719398400,12.1573984375,-0.0781877264380455,-0.006643454544246197,0.222097247838974
1684099589729416400,12.16741650390625,-0.10189252346754074,-0.018557371571660042,0.2930142879486084
1684099589739435500,12.177435546875,-0.12478989362716675,-0.13043108582496643,0.27428892254829407
1684099589749453600,12.18745361328125,-0.1142704039812088,-0.2690163850784302,0.16861680150032043
1684099589759472400,12.197472412109375,-0.10554814338684082,-0.2532065510749817,0.13029786944389343
1684099589769490400,12.207490478515625,-0.13441681861877441,-0.17020778357982635,0.09209669381380081
1684099589779508500,12.217508544921875,-0.1848321110010147,-0.012839403003454208,0.026581529527902603
1684099589789527300,12.22752734375,-0.2132946401834488,0.14071446657180786,0.004888484254479408
1684099589799545600,12.237545654296875,-0.22477324306964874,0.09760712087154388,0.0009123266790993512
1684099589809564400,12.247564453125,-0.2296777218580246,-0.03595040738582611,0.011933819390833378
1684099589819582500,12.25758251953125,-0.21031008660793304,-0.09148125350475311,0.015202293172478676
1684099589829601500,12.2676015625,-0.18713818490505219,-0.0071988655254244804,-0.016468551009893417
1684099589839619300,12.277619384765625,-0.16491222381591797,0.12871171534061432,-0.06732844561338425
1684099589849637600,12.2876376953125,-0.15985408425331116,0.17956717312335968,-0.11215557157993317
1684099589859656400,12.297656494140625,-0.174298495054245,0.11271508038043976,-0.11003553122282028
