time,seconds_elapsed,z,y,x
1684107920249627600,0.029627685546875,0.425555020570755,-1.955093264579773,1.7902942895889282
1684107920259644700,0.039644775390625,0.2646143436431885,-2.504272699356079,2.366426467895508
1684107920269662700,0.049662841796875,0.02614307776093483,-3.0593113899230957,3.052800416946411
1684107920279680800,0.0596806640625,-0.0813002958893776,-3.033505916595459,3.609391212463379
1684107920289697500,0.069697509765625,-0.04872891679406166,-1.5970672369003296,3.758176803588867
1684107920299715800,0.0797158203125,0.13912540674209595,0.9050689935684204,3.4703011512756348
1684107920309733600,0.089733642578125,0.6117795705795288,3.502366304397583,2.782572031021118
1684107920319751700,0.099751708984375,1.8341268301010132,4.783509254455566,2.2255122661590576
1684107920329768700,0.109768798828125,3.7099082469940186,3.0469648838043213,2.5490734577178955
1684107920339786800,0.119786865234375,3.5356202125549316,3.6265981197357178,1.371445894241333
1684107920349804500,0.129804443359375,2.0456953048706055,2.735630750656128,0.49578574299812317
1684107920359821600,0.139821533203125,1.0031077861785889,0.05774673447012901,0.07486885040998459
1684107920369839600,0.149839599609375,0.3699639141559601,-2.1071884632110596,-0.4242081344127655
1684107920379857700,0.159857666015625,-0.22412316501140594,-2.9675722122192383,-0.7906995415687561
1684107920389874700,0.169874755859375,-0.610534131526947,-3.0972137451171875,-1.0530569553375244
1684107920399892500,0.179892578125,-0.8530311584472656,-2.726644992828369,-1.144023060798645
1684107920409910800,0.189910888671875,-1.0054088830947876,-2.041208505630493,-1.1609246730804443
1684107920419927600,0.199927490234375,-1.0699518918991089,-1.134827733039856,-1.1292167901992798
1684107920429945600,0.209945556640625,-1.0300849676132202,-0.346647173166275,-0.994837760925293
1684107920439963600,0.219963623046875,-0.8575537800788879,0.12182710319757462,-0.7975528836250305
1684107920449981700,0.229981689453125,-0.7004284858703613,0.1639748215675354,-0.5867354869842529
1684107920459998700,0.239998779296875,-0.6200910210609436,-0.05067037418484688,-0.4621427357196808
1684107920470016800,0.250016845703125,-0.5230976939201355,-0.2551962733268738,-0.41105857491493225
1684107920480034600,0.26003466796875,-0.39787960052490234,-0.2907071113586426,-0.3175949454307556
1684107920490051800,0.2700517578125,-0.39835894107818604,-0.15097390115261078,-0.08308184891939163
1684107920500069600,0.280069580078125,-0.34341421723365784,0.3385435938835144,0.11318859457969666
1684107920510087700,0.290087646484375,-0.16636765003204346,0.9683207869529724,0.2132555991411209
1684107920520104700,0.300104736328125,0.17823873460292816,1.6901344060897827,0.11949928104877472
1684107920530122800,0.310122802734375,0.5576165914535522,2.0685102939605713,-0.19055823981761932
1684107920540140500,0.320140625,0.5221477746963501,1.8185818195343018,-0.4833182096481323
1684107920550158800,0.330158935546875,0.3435697853565216,1.3051873445510864,-0.7836869955062866
1684107920560175600,0.340175537109375,0.25064200162887573,0.6031360626220703,-0.9941683411598206
1684107920570193700,0.350193603515625,0.13696637749671936,0.07321729511022568,-1.0786216259002686
1684107920580211700,0.360211669921875,-0.012136551551520824,-0.27557262778282166,-1.0635472536087036
1684107920590228500,0.370228515625,-0.13819535076618195,-0.36700063943862915,-0.993233859539032
1684107920600246800,0.380246826171875,-0.25352007150650024,-0.07819414883852005,-0.8574632406234741
1684107920610264800,0.390264892578125,-0.35311761498451233,0.5296955704689026,-0.6767919063568115
1684107920620281600,0.400281494140625,-0.4192337691783905,1.2976281642913818,-0.48912855982780457
1684107920630299600,0.410299560546875,-0.475382000207901,2.0638060569763184,-0.30564606189727783
1684107920640317700,0.420317626953125,-0.5856379866600037,2.6212158203125,-0.18783769011497498
1684107920650335700,0.430335693359375,-0.7347664833068848,2.7338600158691406,-0.27684852480888367
1684107920660353300,0.440353271484375,-0.7810162305831909,2.6372337341308594,-0.4664134085178375
1684107920670371300,0.450371337890625,-0.9276925325393677,2.233372211456299,-0.9651123881340027
1684107920680389000,0.46038916015625,-1.2659696340560913,1.983679175376892,-1.6662790775299072
1684107920690406400,0.470406494140625,-1.3656597137451172,2.191138744354248,-2.289069414138794
1684107920700424200,0.480424072265625,-1.1335684061050415,3.2845964431762695,-2.7156896591186523
1684107920710442200,0.490442138671875,-0.8178625702857971,5.128726005554199,-2.9964280128479004
1684107920720459300,0.500459228515625,-0.6830126643180847,7.339584827423096,-3.0808475017547607
1684107920730477300,0.510477294921875,-0.6422470211982727,9.48491382598877,-2.590076446533203
1684107920740495000,0.5204951171875,-0.7001393437385559,10.914874076843262,-1.1763498783111572
1684107920750512000,0.53051220703125,-0.892253041267395,11.767062187194824,0.7652368545532227
1684107920760530200,0.5405302734375,-1.2726123332977295,12.431978225708008,2.47515606880188
1684107920770548200,0.55054833984375,-1.7224870920181274,13.051916122436523,3.682431936264038
1684107920780566300,0.560566162109375,-2.2356960773468018,13.146106719970703,4.423032283782959
1684107920790583000,0.5705830078125,-2.9149227142333984,12.213573455810547,4.677253246307373
1684107920800601300,0.580601318359375,-3.684464931488037,10.510127067565918,4.515475273132324
1684107920810619100,0.590619140625,-4.635290145874023,8.414579391479492,4.250258922576904
1684107920820636200,0.60063623046875,-5.801707744598389,5.861752986907959,4.04897403717041
1684107920830654200,0.610654296875,-6.801881313323975,3.1556284427642822,3.9517788887023926
1684107920840672300,0.62067236328125,-7.223756790161133,0.7793123722076416,4.124019145965576
1684107920850690000,0.63068994140625,-6.861162185668945,-0.8066315054893494,4.47957181930542
1684107920860707300,0.640707275390625,-6.01269006729126,-1.4818514585494995,4.883722305297852
1684107920870725000,0.65072509765625,-5.1050238609313965,-1.552284598350525,5.224849700927734
1684107920880743200,0.6607431640625,-4.308685779571533,-1.0961204767227173,5.415615558624268
1684107920890760200,0.67076025390625,-3.810305595397949,-0.12283875048160553,5.497157573699951
1684107920900778200,0.6807783203125,-3.7442140579223633,1.49655282497406,5.573050022125244
1684107920910796300,0.69079638671875,-4.016242027282715,2.915395975112915,5.493539810180664
1684107920920813300,0.700813232421875,-4.226161956787109,3.6653759479522705,5.297481536865234
1684107920930831000,0.7108310546875,-3.9760806560516357,4.001858234405518,5.174619197845459
1684107920940849400,0.720849365234375,-3.1957476139068604,3.961876630783081,5.2581071853637695
1684107920950867200,0.7308671875,-2.1454200744628906,3.510666608810425,5.384675979614258
1684107920960884200,0.74088427734375,-1.0047558546066284,2.7511491775512695,5.381679534912109
1684107920970902300,0.75090234375,0.8202994465827942,0.9920371770858765,3.7958054542541504
1684107920980920300,0.76092041015625,2.1874914169311523,0.866905927658081,-0.5331749320030212
1684107920990937300,0.770937255859375,1.7104036808013916,-1.844683289527893,-2.9857165813446045
1684107921000955100,0.780955078125,0.7417951822280884,-3.308762788772583,-3.373037099838257
1684107921010973200,0.79097314453125,0.5810806155204773,-2.628480911254883,-2.1218745708465576
1684107921020990200,0.800990234375,0.8935783505439758,-1.0860893726348877,-0.21081183850765228
1684107921031008300,0.81100830078125,1.375247836112976,0.21666181087493896,1.5034757852554321
1684107921041026000,0.821026123046875,1.5112684965133667,0.8745728731155396,2.4606997966766357
1684107921051044400,0.83104443359375,1.5612719058990479,0.8228517174720764,2.7777903079986572
1684107921061061000,0.84106103515625,1.8605188131332397,0.3198434114456177,2.867086410522461
1684107921071079200,0.8510791015625,1.8702152967453003,0.1570436656475067,2.699012279510498
1684107921081097200,0.86109716796875,1.9498547315597534,0.09964723140001297,2.5343148708343506
1684107921091114200,0.8711142578125,1.9977985620498657,0.22096717357635498,2.337325096130371
1684107921101132000,0.881132080078125,2.0552608966827393,0.42897096276283264,2.132314682006836
1684107921111150300,0.891150390625,2.2371342182159424,0.4492228925228119,2.0049688816070557
1684107921121167000,0.9011669921875,2.3821539878845215,0.6010382175445557,1.9113821983337402
1684107921131185400,0.911185302734375,2.306004762649536,0.7688589692115784,1.8882488012313843
1684107921141203200,0.921203125,2.1309478282928467,0.7620934844017029,1.9465216398239136
1684107921151221200,0.93122119140625,2.1341936588287354,0.7458646297454834,2.0264320373535156
1684107921161238300,0.94123828125,2.148193120956421,0.7989147901535034,2.0177903175354004
1684107921171256300,0.95125634765625,1.8378219604492188,0.8765705227851868,1.897804856300354
1684107921181274000,0.961274169921875,1.3835164308547974,1.0067201852798462,1.6218053102493286
1684107921191291400,0.97129150390625,1.0068323612213135,1.0719507932662964,1.2682641744613647
1684107921201309200,0.98130908203125,0.7307139039039612,1.0112320184707642,0.951138973236084
1684107921211327200,0.9913271484375,0.4891761541366577,1.03529691696167,0.7683660984039307
1684107921221344300,1.00134423828125,0.24231575429439545,1.1403813362121582,0.6486796736717224
1684107921231362000,1.011362060546875,0.015053928829729557,1.3644065856933594,0.47141411900520325
1684107921241380000,1.021380126953125,-0.3880937993526459,1.3264011144638062,0.2523837685585022
1684107921251397000,1.031397216796875,-0.870709240436554,0.9988731145858765,-0.05637507513165474
1684107921261415200,1.041415283203125,-1.2029691934585571,-0.2134481966495514,-0.7722300887107849
1684107921271433200,1.05143310546875,-1.4386239051818848,-0.48750418424606323,-1.9025853872299194
1684107921281451300,1.061451171875,-2.4497809410095215,-0.1755385398864746,-2.694340467453003
1684107921291468000,1.071468017578125,-3.197491407394409,0.38246995210647583,-3.033616781234741
1684107921301486300,1.081486328125,-4.406374931335449,-0.1753632128238678,-3.368027448654175
1684107921311504100,1.091504150390625,-4.155613899230957,-0.5954456329345703,-3.9055838584899902
1684107921321521400,1.101521484375,-2.8269858360290527,0.18209220468997955,-2.508922576904297
1684107921331539200,1.111539306640625,-2.17181658744812,1.4422646760940552,-0.9007588624954224
1684107921341557200,1.12155712890625,-1.6222866773605347,2.3331854343414307,0.9189825654029846
1684107921351575000,1.131574951171875,-1.264193058013916,2.724102258682251,1.8751883506774902
1684107921361592300,1.14159228515625,-1.1335833072662354,2.343883991241455,2.0584821701049805
1684107921371610000,1.151610107421875,-1.00144362449646,1.5942598581314087,1.9647603034973145
1684107921381628200,1.161628173828125,-0.7972511053085327,1.042444109916687,1.8557624816894531
1684107921391645200,1.171645263671875,-0.425083726644516,0.7283026576042175,1.7973209619522095
1684107921401663200,1.181663330078125,-0.11765135824680328,0.398922860622406,1.8923431634902954
1684107921411681300,1.191681396484375,0.1696598082780838,-0.05344351753592491,2.0835163593292236
1684107921421698300,1.2016982421875,0.5270770788192749,-0.5330383777618408,2.372056722640991
1684107921431716000,1.211716064453125,0.7293466329574585,-0.887148916721344,2.7738468647003174
1684107921441734400,1.221734375,1.1486903429031372,-1.1458805799484253,3.228015422821045
1684107921451752200,1.231752197265625,1.811600685119629,-0.9794703125953674,3.3878908157348633
1684107921461769200,1.241769287109375,2.485546588897705,-0.48616185784339905,3.193476438522339
1684107921471787300,1.251787353515625,2.9599485397338867,-0.18235249817371368,2.880862236022949
1684107921481805300,1.261805419921875,3.4571480751037598,-0.2460414618253708,2.5567846298217773
1684107921491822300,1.271822265625,3.5889930725097656,-0.4421425461769104,1.9429985284805298
1684107921501840100,1.281840087890625,3.2997305393218994,-0.756817638874054,1.1103767156600952
1684107921511858200,1.291858154296875,3.007033586502075,-1.0838589668273926,0.3522203862667084
1684107921521875200,1.301875244140625,2.777982711791992,-1.0229452848434448,-0.010702426545321941
1684107921531893200,1.311893310546875,2.2746455669403076,-0.2994152009487152,0.14600752294063568
1684107921541911000,1.3219111328125,2.00803279876709,0.7581647038459778,0.36097094416618347
1684107921551929300,1.331929443359375,2.266879081726074,1.4730477333068848,0.725100576877594
1684107921561946000,1.341946044921875,2.5063345432281494,1.7794166803359985,0.9227331876754761
1684107921571964200,1.351964111328125,2.6245999336242676,1.715498685836792,0.9154402613639832
1684107921581982200,1.361982177734375,2.7970948219299316,1.3008506298065186,0.7579816579818726
1684107921591999200,1.371999267578125,3.0141854286193848,0.7784010767936707,0.6283894777297974
1684107921602017300,1.382017333984375,2.6166110038757324,0.07733294367790222,0.5850185751914978
1684107921612035300,1.392035400390625,2.1956803798675537,0.4221538305282593,0.6013063192367554
1684107921622052000,1.402052001953125,2.2560031414031982,1.1421772241592407,0.7322193384170532
1684107921632070400,1.4120703125,2.509793758392334,2.0066492557525635,0.6761471629142761
1684107921642088200,1.422088134765625,2.7974693775177,4.26057243347168,0.3435401916503906
1684107921652106200,1.432106201171875,3.4263553619384766,5.692205429077148,0.011171290650963783
1684107921662123300,1.442123291015625,4.065854549407959,5.01344108581543,-0.0950600728392601
1684107921672141300,1.452141357421875,4.418078899383545,2.5284833908081055,-0.0703638419508934
1684107921682159000,1.4621591796875,4.917880535125732,0.08564458787441254,0.06098645552992821
1684107921692176100,1.472176025390625,5.26887845993042,-2.497140884399414,0.33162012696266174
1684107921702194200,1.482194091796875,5.505527973175049,-3.7170145511627197,0.29595375061035156
1684107921712212200,1.492212158203125,5.374211311340332,-1.694304347038269,-0.29685813188552856
1684107921722229200,1.502229248046875,4.12466287612915,-0.3205995261669159,-0.8126010894775391
1684107921732247000,1.5122470703125,1.3156170845031738,0.6041198968887329,-1.1046184301376343
1684107921742265300,1.522265380859375,-0.9651648998260498,0.759975790977478,-0.0018370292382314801
1684107921752282000,1.5322822265625,-1.149169921875,2.125523090362549,2.279285430908203
1684107921762300200,1.542300048828125,-0.2953179180622101,1.4960436820983887,3.8513917922973633
1684107921772318200,1.552318115234375,0.5386897921562195,0.17527878284454346,4.488288879394531
1684107921782336300,1.562336181640625,1.0105582475662231,-0.7489861845970154,4.349358081817627
1684107921792353300,1.572353271484375,0.9997998476028442,-1.2837553024291992,3.5421769618988037
1684107921802371300,1.582371337890625,0.6677236557006836,-1.520713210105896,2.4588727951049805
1684107921812389000,1.59238916015625,0.3625755310058594,-1.5586789846420288,1.4853394031524658
1684107921822406400,1.602406494140625,0.27466991543769836,-1.5306668281555176,0.9725072383880615
1684107921832424200,1.612424072265625,0.19259591400623322,-1.8420203924179077,0.9979074001312256
1684107921842442200,1.622442138671875,0.08772677183151245,-1.9319078922271729,1.3579537868499756
1684107921852459300,1.632459228515625,-0.5410830974578857,-1.9443306922912598,2.1335926055908203
1684107921862477300,1.642477294921875,-0.9142311215400696,-1.6988364458084106,2.886448860168457
1684107921872495000,1.6524951171875,-0.9190600514411926,-1.702640175819397,3.1486713886260986
1684107921882513400,1.662513427734375,-0.8633003234863281,-1.607817530632019,2.9678781032562256
1684107921892530200,1.6725302734375,-0.9960077404975891,-1.67827570438385,2.3377439975738525
1684107921902548200,1.68254833984375,-2.124988079071045,-1.4772216081619263,0.9936493039131165
1684107921912566300,1.692566162109375,-1.8108497858047485,-1.5969040393829346,0.6398906707763672
1684107921922583000,1.7025830078125,-0.9894794821739197,-1.0590200424194336,1.0620590448379517
1684107921932601000,1.71260107421875,-0.5435647964477539,-0.52824467420578,1.7045384645462036
1684107921942619400,1.722619384765625,-0.6158512830734253,-0.35122594237327576,2.1273210048675537
1684107921952636200,1.73263623046875,-0.6750536561012268,-0.42326048016548157,2.0257933139801025
1684107921962654200,1.742654296875,-0.9863556027412415,-0.6000381112098694,1.7576167583465576
1684107921972672300,1.75267236328125,-1.4642857313156128,-0.7384878993034363,1.5713666677474976
1684107921982689000,1.76268896484375,-1.852382779121399,-0.6743174195289612,1.410219669342041
1684107921992707300,1.772707275390625,-2.432018518447876,-0.5437836647033691,1.2913836240768433
1684107922002725000,1.78272509765625,-3.4265542030334473,-0.5016500353813171,1.3126862049102783
1684107922012743200,1.7927431640625,-4.027209758758545,-0.25987935066223145,1.430850625038147
1684107922022760200,1.80276025390625,-3.2039589881896973,0.6619837284088135,1.3610109090805054
1684107922032778200,1.8127783203125,-2.174175977706909,1.475037693977356,1.1060872077941895
1684107922042796000,1.822796142578125,-1.4528714418411255,1.7465312480926514,0.9285411834716797
1684107922052813300,1.832813232421875,-0.8738553524017334,1.931053638458252,0.7512035965919495
1684107922062831000,1.8428310546875,-0.35917335748672485,1.9475047588348389,0.6058312058448792
1684107922072849200,1.85284912109375,0.02725815586745739,1.9507514238357544,0.5709251761436462
1684107922082866200,1.8628662109375,0.022373652085661888,2.456202745437622,0.47054556012153625
1684107922092884200,1.87288427734375,-0.44567474722862244,3.637923002243042,0.1019640862941742
1684107922102902300,1.88290234375,-1.2440028190612793,4.543406963348389,-0.17247332632541656
1684107922112920300,1.89292041015625,-1.697426676750183,4.235987186431885,-0.17318330705165863
1684107922122937000,1.90293701171875,-1.7822723388671875,4.0959672927856445,-0.08489925414323807
1684107922132955400,1.912955322265625,-1.8002021312713623,4.2800211906433105,0.08057145029306412
1684107922142973200,1.92297314453125,-1.844480037689209,4.178012847900391,0.2960757613182068
1684107922152990200,1.932990234375,-2.0342180728912354,3.6712656021118164,0.4992990493774414
1684107922163008300,1.94300830078125,-2.4633476734161377,3.3817059993743896,0.7066239714622498
1684107922173026300,1.9530263671875,-3.367274761199951,3.6904797554016113,0.8981813788414001
1684107922183043300,1.963043212890625,-4.32866907119751,4.16050386428833,1.0692121982574463
1684107922193061000,1.97306103515625,-4.70030403137207,4.180596351623535,1.082611083984375
1684107922203079200,1.9830791015625,-4.841150760650635,3.505413770675659,0.9844398498535156
1684107922213096200,1.99309619140625,-4.942895412445068,2.2766919136047363,0.768106997013092
1684107922223114200,2.0031142578125,-5.109151363372803,1.6555969715118408,0.05301551893353462
1684107922233132000,2.013132080078125,-4.808074951171875,1.0722923278808594,-0.5939846634864807
1684107922243150300,2.023150390625,-4.502091407775879,-0.3192695081233978,-0.5778692960739136
1684107922253167000,2.0331669921875,-4.003303050994873,-1.624577283859253,0.0875546857714653
1684107922263185200,2.04318505859375,-3.677595615386963,-2.0063071250915527,1.1565947532653809
1684107922273203200,2.053203125,-4.613865852355957,-0.8093026876449585,3.896897077560425
1684107922283220200,2.06322021484375,-4.840142726898193,0.7450278401374817,5.520173072814941
1684107922293238300,2.07323828125,-4.704923152923584,2.524134635925293,5.939471244812012
1684107922303256300,2.08325634765625,-4.898305892944336,2.2207822799682617,6.121967315673828
1684107922313273000,2.093273193359375,-4.877204418182373,1.0618367195129395,6.725715637207031
1684107922323291400,2.10329150390625,-4.796608924865723,2.410210132598877,4.779599666595459
1684107922333309200,2.11330908203125,-4.156394004821777,3.8206071853637695,3.617886781692505
1684107922343327200,2.1233271484375,-3.570070743560791,3.42875337600708,4.295347213745117
1684107922353344300,2.13334423828125,-3.079591751098633,2.2984142303466797,4.412661075592041
1684107922363362300,2.1433623046875,-2.62994384765625,1.511906623840332,3.7119250297546387
1684107922373380000,2.153380126953125,-2.158637285232544,0.4625674784183502,3.300205707550049
1684107922383397000,2.163397216796875,-1.653948187828064,-0.7514254450798035,2.7158544063568115
1684107922393415200,2.173415283203125,-1.2775553464889526,-1.6907726526260376,2.1588873863220215
1684107922403433200,2.18343310546875,-1.0299631357192993,-2.097080945968628,2.0107359886169434
1684107922413450200,2.1934501953125,-0.9718030691146851,-2.020949602127075,1.8803162574768066
1684107922423468000,2.203468017578125,-0.9899559617042542,-1.781890869140625,1.657986044883728
1684107922433486300,2.213486328125,-1.0125136375427246,-1.3463034629821777,1.3481663465499878
1684107922443504400,2.22350439453125,-0.9716552495956421,-0.985101044178009,1.0179288387298584
1684107922453521200,2.233521240234375,-0.9192661046981812,-0.6790521740913391,0.9793119430541992
1684107922463539200,2.243539306640625,-0.8722322583198547,-0.3304630517959595,1.1392656564712524
1684107922473557200,2.25355712890625,-0.6902369260787964,-0.266165554523468,1.3399946689605713
1684107922483574300,2.26357421875,-0.27717825770378113,-0.3633919954299927,1.4631738662719727
1684107922493592300,2.27359228515625,0.3383869230747223,-0.7713443040847778,1.4402291774749756
1684107922503610000,2.283610107421875,0.9248288869857788,-1.4161635637283325,1.27582848072052
1684107922513627400,2.29362744140625,1.3463013172149658,-1.9922162294387817,0.9786040782928467
1684107922523645200,2.303645263671875,1.5348457098007202,-2.5192511081695557,0.6765933632850647
1684107922533663200,2.313663330078125,1.6061633825302124,-3.115421772003174,0.5645354390144348
1684107922543681000,2.323680908203125,1.820717453956604,-3.6833486557006836,0.671754002571106
1684107922553698300,2.3336982421875,2.264071464538574,-4.045658588409424,0.9130160212516785
1684107922563716000,2.343716064453125,2.745546340942383,-4.242372035980225,1.1433682441711426
1684107922573734400,2.353734375,3.1738264560699463,-4.197428226470947,1.2531605958938599
1684107922583751200,2.363751220703125,3.5759809017181396,-3.832047939300537,1.0702898502349854
1684107922593769200,2.373769287109375,3.827827215194702,-3.0024971961975098,0.6295445561408997
1684107922603787300,2.383787353515625,3.7521748542785645,-1.9093098640441895,0.08972526341676712
1684107922613804000,2.393803955078125,2.9242050647735596,-1.1545780897140503,-0.8839172124862671
1684107922623822300,2.403822265625,2.121328115463257,0.7503552436828613,-1.3786132335662842
1684107922633840400,2.41384033203125,1.4866207838058472,3.4477450847625732,-1.4924393892288208
1684107922643857200,2.423857177734375,1.127761721611023,5.723129749298096,-1.4083545207977295
1684107922653875200,2.433875244140625,0.7179763913154602,6.4676289558410645,-1.117004632949829
1684107922663893500,2.4438935546875,0.33741921186447144,6.186679363250732,-0.7737141847610474
1684107922673911300,2.453911376953125,-0.1520407348871231,5.068692684173584,-0.36238595843315125
1684107922683928600,2.463928466796875,-0.8151009678840637,3.3872766494750977,0.11648662388324738
1684107922693946400,2.4739462890625,-1.7283941507339478,1.5920387506484985,0.5901877284049988
1684107922703964400,2.48396435546875,-2.8787951469421387,0.07197493314743042,0.9847073554992676
1684107922713981400,2.4939814453125,-3.8976523876190186,-0.9642613530158997,1.365642786026001
1684107922723999500,2.50399951171875,-4.224710941314697,-1.0672580003738403,1.7858257293701172
1684107922734017300,2.514017333984375,-3.648824691772461,0.03174247965216637,2.122565269470215
1684107922744034600,2.52403466796875,-2.4848825931549072,1.381148099899292,2.5031888484954834
1684107922754052400,2.53405224609375,-0.9803081750869751,2.2940430641174316,2.105936288833618
1684107922764070400,2.5440703125,0.27828681468963623,2.819272756576538,0.36312106251716614
1684107922774088400,2.55408837890625,0.8366252183914185,2.9070565700531006,-0.9661742448806763
1684107922784105500,2.56410546875,0.9697436094284058,1.685463547706604,-1.4823476076126099
1684107922794123500,2.57412353515625,1.4829801321029663,1.1224281787872314,-1.388698697090149
1684107922804141600,2.5841416015625,1.7228443622589111,0.06917009502649307,-1.2609384059906006
1684107922814158300,2.594158447265625,1.8162403106689453,-1.147410273551941,-1.0672715902328491
1684107922824176400,2.60417626953125,1.9150981903076172,-2.2179369926452637,-1.0134259462356567
1684107922834194400,2.6141943359375,2.0825018882751465,-3.313319683074951,-1.3343987464904785
1684107922844211500,2.62421142578125,2.0589263439178467,-3.048866033554077,-1.086364507675171
1684107922854229500,2.6342294921875,2.3370437622070312,-2.32667875289917,-0.5648455619812012
1684107922864247300,2.644247314453125,2.810188055038452,-1.292611837387085,0.16959193348884583
1684107922874265300,2.654265380859375,3.176285743713379,-0.5476030111312866,0.6788027882575989
1684107922884282400,2.664282470703125,3.1218056678771973,-1.460174798965454,0.5679559111595154
1684107922894300400,2.674300537109375,2.78739857673645,-3.2244772911071777,0.10717467963695526
1684107922904318200,2.684318115234375,2.3476243019104004,-4.2445268630981445,-0.3037971556186676
1684107922914335500,2.69433544921875,1.7916977405548096,-4.348802089691162,-0.7530936598777771
1684107922924353300,2.704353271484375,0.9830110669136047,-3.941216230392456,-1.3151212930679321
1684107922934371600,2.71437158203125,-0.07852064818143845,-3.1824824810028076,-2.039822816848755
1684107922944388400,2.724388427734375,-0.8024924397468567,-3.164964437484741,-2.2767539024353027
1684107922954406400,2.734406494140625,-0.799050509929657,-1.8626832962036133,-1.4550597667694092
1684107922964424400,2.744424560546875,-0.9071370363235474,0.8398832678794861,-0.5772462487220764
1684107922974441500,2.75444140625,-0.9250141382217407,2.10487961769104,0.4874584674835205
1684107922984459500,2.76445947265625,-0.7817829847335815,2.5802581310272217,1.4505616426467896
1684107922994477600,2.7744775390625,-0.5426010489463806,2.707831621170044,2.1201772689819336
1684107923004495400,2.784495361328125,-0.3606749475002289,2.4168331623077393,2.3548521995544434
1684107923014512600,2.7945126953125,-0.42350199818611145,2.046661138534546,2.212263584136963
1684107923024530400,2.804530517578125,-0.5402544736862183,1.8377934694290161,1.9077614545822144
1684107923034548500,2.814548583984375,-0.6602919101715088,1.9398947954177856,1.5312049388885498
1684107923044565500,2.8245654296875,-1.0539196729660034,3.3372621536254883,-0.11122582107782364
1684107923054583300,2.834583251953125,-2.256451368331909,3.7499587535858154,-1.2957912683486938
1684107923064601300,2.844601318359375,-3.5803446769714355,1.539669394493103,-1.5764080286026
1684107923074618400,2.854618408203125,-3.62441086769104,-0.4111557900905609,-2.015758752822876
1684107923084636400,2.864636474609375,-3.4040253162384033,-2.1635594367980957,-2.606199264526367
1684107923094654200,2.874654296875,-2.614219903945923,-4.096322059631348,-3.080333709716797
1684107923104672500,2.884672607421875,-1.51732337474823,-5.161181926727295,-3.3091485500335693
1684107923114689300,2.894689208984375,-0.4343869388103485,-5.164922714233398,-3.08091402053833
1684107923124707600,2.90470751953125,0.4840957820415497,-4.334619045257568,-2.809041976928711
1684107923134725400,2.914725341796875,1.3365581035614014,-4.209445953369141,-2.3958842754364014
1684107923144742400,2.924742431640625,2.2655420303344727,-5.141345500946045,-2.0923683643341064
1684107923154760400,2.934760498046875,3.2535955905914307,-6.29939079284668,-1.8947372436523438
1684107923164778500,2.944778564453125,4.157867431640625,-7.292513847351074,-1.672419548034668
1684107923174795300,2.954795166015625,4.756044387817383,-7.812386989593506,-1.495829701423645
1684107923184813600,2.9648134765625,4.549242973327637,-8.118077278137207,-1.4446702003479004
1684107923194831400,2.974831298828125,3.7760608196258545,-8.192341804504395,-1.4689545631408691
1684107923204848600,2.9848486328125,2.716264486312866,-7.529918193817139,-1.5901137590408325
1684107923214866400,2.994866455078125,1.6175556182861328,-5.947498321533203,-1.7309740781784058
1684107923224884500,3.004884521484375,0.692556619644165,-3.653301477432251,-1.6214581727981567
1684107923234902300,3.01490234375,0.12603996694087982,-1.5828427076339722,-1.1713060140609741
1684107923244919600,3.02491943359375,-0.15375733375549316,-0.2317415475845337,-0.6586291790008545
1684107923254937300,3.034937255859375,-0.5084482431411743,1.2161203622817993,-0.11414945125579834
1684107923264955600,3.04495556640625,-1.1419469118118286,2.6274585723876953,0.27996721863746643
1684107923274972400,3.054972412109375,-1.665102243423462,3.993608236312866,0.5272281765937805
1684107923284990200,3.064990234375,-1.8308286666870117,5.290492534637451,0.569558322429657
1684107923295008500,3.075008544921875,-1.9822405576705933,6.749967098236084,0.27540645003318787
1684107923305025300,3.085025390625,-2.337264060974121,8.16943073272705,-0.2245950996875763
1684107923315043300,3.095043212890625,-2.70200777053833,8.985424995422363,-0.7486546039581299
1684107923325061400,3.105061279296875,-2.8403403759002686,9.118200302124023,-1.275085687637329
1684107923335079400,3.115079345703125,-2.534608840942383,8.383222579956055,-1.6065325736999512
1684107923345096400,3.125096435546875,-1.9883441925048828,6.8504133224487305,-1.5395649671554565
1684107923355114500,3.135114501953125,-1.4668858051300049,4.743168354034424,-0.9323687553405762
1684107923365132300,3.14513232421875,-0.9047746062278748,3.10422682762146,0.005999780725687742
1684107923375149600,3.155149658203125,-0.8978896737098694,1.7156263589859009,1.528241753578186
1684107923385167400,3.16516748046875,-0.9085285067558289,0.31967565417289734,2.5888993740081787
1684107923395185400,3.175185302734375,-0.43157851696014404,-1.179413914680481,2.609517812728882
1684107923405202400,3.185202392578125,0.08735574036836624,-2.62617564201355,2.2090957164764404
1684107923415220500,3.195220458984375,0.39752113819122314,-3.4112772941589355,1.4546525478363037
1684107923425238300,3.20523828125,0.6149128675460815,-2.999455690383911,0.24859723448753357
1684107923435256600,3.215256591796875,1.0608277320861816,-2.2101805210113525,-0.6415992975234985
1684107923445273300,3.2252734375,1.68586266040802,-1.7962642908096313,-0.9044356942176819
1684107923455291400,3.23529150390625,2.117401361465454,-1.664679765701294,-0.9125295877456665
1684107923465309400,3.245309326171875,2.150158166885376,-1.7282533645629883,-0.7994949221611023
1684107923475326500,3.255326416015625,2.0224218368530273,-1.9413644075393677,-0.724271833896637
1684107923485344500,3.265344482421875,1.7454489469528198,-2.1574578285217285,-0.6770539879798889
1684107923495362600,3.275362548828125,1.299689531326294,-2.2981345653533936,-0.6185721755027771
1684107923505379300,3.28537939453125,0.7861226797103882,-2.318840503692627,-0.4802321493625641
1684107923515397400,3.2953974609375,0.2627171576023102,-2.1772537231445312,-0.2929563522338867
1684107923525415400,3.30541552734375,-0.14664292335510254,-1.9126760959625244,-0.05752837657928467
1684107923535432400,3.315432373046875,-0.3491796851158142,-1.565119743347168,0.19976231455802917
1684107923545450500,3.325450439453125,-0.3950297236442566,-1.2192288637161255,0.45467105507850647
1684107923555468300,3.33546826171875,-0.24393539130687714,-0.8020563721656799,0.665795624256134
1684107923565486300,3.345486328125,-0.281658798456192,-0.43466031551361084,0.916850209236145
1684107923575503400,3.35550341796875,-0.7021676898002625,-0.07980579882860184,1.240522027015686
1684107923585521400,3.365521484375,-1.0360063314437866,-0.04245416447520256,1.4571890830993652
1684107923595539500,3.37553955078125,-0.6429369449615479,-0.4219837486743927,1.5769927501678467
1684107923605556500,3.385556396484375,0.35580015182495117,-0.890703022480011,1.679166555404663
1684107923615574300,3.39557421875,1.1359796524047852,-0.32915109395980835,1.7303247451782227
1684107923625592600,3.405592529296875,1.5127919912338257,0.22552169859409332,1.2681920528411865
1684107923635609300,3.415609375,1.6427605152130127,1.1567142009735107,0.1944095343351364
1684107923645627400,3.42562744140625,1.5071678161621094,1.8598244190216064,-0.38845202326774597
1684107923655645400,3.4356455078125,0.9966758489608765,2.890300989151001,-0.844750702381134
1684107923665663200,3.445663330078125,0.0799844041466713,4.0324578285217285,-1.3667131662368774
1684107923675680300,3.45568017578125,-1.0367193222045898,4.81162166595459,-1.7394874095916748
1684107923685698300,3.4656982421875,-2.199730157852173,5.047264575958252,-1.7291407585144043
1684107923695716000,3.475716064453125,-2.869292974472046,5.146742820739746,-1.4430750608444214
1684107923705733000,3.485733154296875,-2.9186768531799316,3.0955588817596436,-0.5225707292556763
1684107923715751200,3.495751220703125,-2.4814937114715576,-1.523536205291748,0.9010249376296997
1684107923725769200,3.505769287109375,-2.011837959289551,-3.1069111824035645,1.4184714555740356
1684107923735786200,3.5157861328125,-1.542178988456726,-2.9458627700805664,1.5687638521194458
1684107923745804000,3.525803955078125,-1.0480082035064697,-2.6516098976135254,1.8287488222122192
1684107923755822000,3.535822021484375,-0.5299426317214966,-2.410468101501465,2.1911888122558594
1684107923765839000,3.545839111328125,-0.050327036529779434,-2.155025005340576,2.569551467895508
1684107923775857200,3.555857177734375,0.2769815921783447,-2.1409401893615723,2.8920934200286865
1684107923785875200,3.565875244140625,0.445149302482605,-2.5520668029785156,3.0924174785614014
1684107923795893200,3.575893310546875,0.5440335869789124,-3.314239263534546,3.1666948795318604
1684107923805910000,3.585909912109375,0.6329392194747925,-4.060570240020752,3.1803131103515625
1684107923815928300,3.59592822265625,0.8301140666007996,-4.088036060333252,2.880572557449341
1684107923825946000,3.605946044921875,1.0547093152999878,-2.4069974422454834,2.075011968612671
1684107923835963100,3.615963134765625,1.1109391450881958,1.2760416269302368,0.9868432283401489
1684107923845981200,3.625981201171875,1.1000195741653442,4.104355335235596,0.09815943241119385
1684107923855999200,3.635999267578125,1.0798301696777344,5.055669784545898,-0.44102776050567627
1684107923866016300,3.646016357421875,1.1271859407424927,5.135169982910156,-0.7865175008773804
1684107923876034300,3.656034423828125,1.2514092922210693,4.9927144050598145,-0.9935548901557922
1684107923886052000,3.666052001953125,1.4413386583328247,4.902439594268799,-1.1008645296096802
1684107923896070100,3.676070068359375,1.6374527215957642,4.872806549072266,-1.1513547897338867
1684107923906087200,3.686087158203125,1.8658214807510376,4.750964641571045,-1.0998148918151855
1684107923916105200,3.696105224609375,2.0843071937561035,3.8050360679626465,-0.4708133339881897
1684107923926123300,3.706123291015625,2.2188689708709717,1.6290026903152466,1.0208708047866821
1684107923936140000,3.71614013671875,1.9530755281448364,0.4095274806022644,2.0056815147399902
1684107923946158000,3.726157958984375,1.4520564079284668,0.39306649565696716,2.4314677715301514
1684107923956176400,3.73617626953125,0.836153507232666,1.0836373567581177,2.5009472370147705
1684107923966193200,3.746193115234375,0.18789298832416534,1.8505295515060425,2.356058120727539
1684107923976211000,3.7562109375,-0.47986337542533875,2.2274258136749268,2.0433449745178223
1684107923986229200,3.766229248046875,-1.1189285516738892,2.316713571548462,1.5749261379241943
1684107923996246000,3.77624609375,-1.6247142553329468,2.4982857704162598,1.0130791664123535
1684107924006264300,3.786264404296875,-1.8736151456832886,2.9044857025146484,0.43987366557121277
1684107924016282000,3.7962822265625,-1.8088229894638062,3.224674701690674,-0.1111227422952652
1684107924026300200,3.806300048828125,-1.4879024028778076,3.0867209434509277,-0.6476130485534668
1684107924036317200,3.816317138671875,-1.019083023071289,2.4453861713409424,-1.1474274396896362
1684107924046335200,3.826335205078125,-0.5011741518974304,1.6385587453842163,-1.5608850717544556
1684107924056353000,3.83635302734375,-0.07752130180597305,0.9572739601135254,-1.8326938152313232
1684107924066370300,3.846370361328125,0.07683924585580826,0.30995243787765503,-1.7236701250076294
1684107924076388000,3.85638818359375,-0.09348079562187195,-0.48085469007492065,-1.0150517225265503
1684107924086406100,3.86640625,-0.4010775089263916,-1.175491213798523,-0.4321754276752472
1684107924096423200,3.876423095703125,-0.5473728775978088,-1.584468960762024,-0.2868278920650482
1684107924106441200,3.886441162109375,-0.4144422709941864,-1.7283324003219604,-0.39530643820762634
1684107924116459000,3.896458984375,-0.12565556168556213,-1.6817874908447266,-0.5722920298576355
1684107924126477300,3.906477294921875,0.19180388748645782,-1.532008409500122,-0.7551020383834839
1684107924136494000,3.916494140625,0.4456769824028015,-1.4323097467422485,-0.929977297782898
1684107924146512400,3.926512451171875,0.6060855984687805,-1.5286473035812378,-1.0992571115493774
1684107924156530200,3.9365302734375,0.7177845239639282,-1.608752727508545,-1.2250244617462158
1684107924166547000,3.946546875,0.7818660140037537,-1.510357141494751,-1.2760393619537354
1684107924176565200,3.956565185546875,0.8007491230964661,-1.2666770219802856,-1.2461600303649902
1684107924186583300,3.966583251953125,0.7407510280609131,-0.8914579153060913,-1.1466165781021118
1684107924196600300,3.976600341796875,0.581255316734314,-0.40822088718414307,-1.0055369138717651
1684107924206618000,3.9866181640625,0.3226136267185211,0.07398970425128937,-0.7619964480400085
1684107924216636200,3.99663623046875,0.05391911789774895,1.4604849815368652,-0.30213841795921326
1684107924226654200,4.006654296875,-0.057589832693338394,2.0695624351501465,0.9492005705833435
1684107924236671200,4.016671142578125,0.05907856300473213,2.2732150554656982,1.8420122861862183
1684107924246689000,4.02668896484375,0.19959627091884613,1.8123856782913208,2.1510117053985596
1684107924256707000,4.03670703125,0.1544049084186554,0.6761404871940613,1.9342892169952393
1684107924266724000,4.04672412109375,-0.029306864365935326,-1.1405476331710815,1.317448616027832
1684107924276742100,4.0567421875,-0.24209141731262207,-2.9025771617889404,0.4612959921360016
1684107924286760200,4.06676025390625,-0.32019394636154175,-3.7557854652404785,-0.28586530685424805
1684107924296777200,4.076777099609375,-0.2745494544506073,-3.585906505584717,-0.7783229351043701
1684107924306795000,4.086794921875,-0.17885060608386993,-2.749312162399292,-1.0693135261535645
1684107924316813300,4.096813232421875,-0.12324521690607071,-1.5309498310089111,-1.210387110710144
1684107924326830000,4.106830078125,-0.14791834354400635,-0.15159378945827484,-1.259913682937622
1684107924336848400,4.116848388671875,-0.24498455226421356,1.1376025676727295,-1.2652766704559326
1684107924346866200,4.1268662109375,-0.39214736223220825,2.2072770595550537,-1.1940866708755493
1684107924356884200,4.13688427734375,-0.47365811467170715,2.9597256183624268,-1.0004996061325073
1684107924366901200,4.1469013671875,-0.42381757497787476,2.8039348125457764,-0.48576173186302185
1684107924376919300,4.156919189453125,-0.25628694891929626,0.5418980717658997,0.7693071365356445
1684107924386937000,4.16693701171875,0.07518553733825684,-2.0677454471588135,2.1633048057556152
1684107924396954000,4.1769541015625,0.20797251164913177,-3.013526201248169,3.058777332305908
1684107924406972200,4.18697216796875,0.03434080630540848,-1.6523442268371582,3.42057466506958
1684107924416990200,4.196990234375,-0.31245145201683044,0.9451690316200256,3.2147629261016846
1684107924427007200,4.20700732421875,-0.5541564226150513,2.2842113971710205,2.840146780014038
1684107924437025000,4.21702490234375,-0.5909389853477478,2.1951844692230225,2.352426767349243
1684107924447043000,4.22704296875,-0.536677896976471,1.255327820777893,1.6051628589630127
1684107924457061400,4.237061279296875,-0.41534659266471863,0.2288241982460022,0.7596420645713806
1684107924467078100,4.247078125,-0.23846502602100372,-0.2838715612888336,0.09701084345579147
1684107924477096200,4.25709619140625,-0.08405666798353195,-0.35302403569221497,-0.3529764711856842
1684107924487114200,4.2671142578125,-0.01694580167531967,-0.1339702308177948,-0.6423055529594421
1684107924497131000,4.277131103515625,-0.03601124882698059,0.2544676661491394,-0.8197240829467773
1684107924507149300,4.2871494140625,-0.10864390432834625,0.7290685772895813,-0.9123716950416565
1684107924517167000,4.2971669921875,-0.18651849031448364,1.2189878225326538,-0.9452664852142334
1684107924527184100,4.30718408203125,-0.2098938524723053,1.595764398574829,-0.9220376014709473
1684107924537202200,4.3172021484375,-0.12798583507537842,1.737583875656128,-0.8497704863548279
1684107924547220200,4.32722021484375,0.03131380304694176,1.600569486618042,-0.7562839388847351
1684107924557237200,4.3372373046875,0.18498069047927856,1.2125715017318726,-0.6770256161689758
1684107924567255300,4.34725537109375,0.34048348665237427,0.594460129737854,-0.5572469830513
1684107924577273000,4.357273193359375,0.5160263180732727,-0.21594835817813873,-0.34737545251846313
1684107924587291100,4.367291015625,0.6638184189796448,-1.0783414840698242,-0.03157062828540802
1684107924597308200,4.37730810546875,0.6648247241973877,-1.7558763027191162,0.35118141770362854
1684107924607326200,4.387326171875,0.5067520141601562,-2.0891501903533936,0.7303491830825806
1684107924617344300,4.39734423828125,0.2518947124481201,-1.9477925300598145,0.9896015524864197
1684107924627361000,4.407361083984375,-0.00035936973290517926,-1.4124242067337036,1.1237844228744507
1684107924637379000,4.417379150390625,-0.14401039481163025,-0.6255418062210083,1.1719003915786743
1684107924647397400,4.4273974609375,-0.16070494055747986,0.2802527844905853,1.182002305984497
1684107924657414100,4.4374140625,-0.12762917578220367,1.145763874053955,1.1594147682189941
1684107924667432400,4.447432373046875,-0.07545465230941772,1.8132237195968628,1.0940779447555542
1684107924677450500,4.457450439453125,0.027159664779901505,2.175445079803467,1.017971396446228
1684107924687468500,4.467468505859375,0.20148965716362,2.1568639278411865,0.9422928690910339
1684107924697485600,4.477485595703125,0.3866972029209137,1.7575249671936035,0.8591644763946533
1684107924707503600,4.487503662109375,0.5212899446487427,1.0766159296035767,0.786483645439148
1684107924717521400,4.497521484375,0.5793178081512451,0.2843789756298065,0.7360854148864746
1684107924727538400,4.507538330078125,0.5417658686637878,-0.4808787405490875,0.6889136433601379
1684107924737556500,4.517556396484375,0.3987957537174225,-1.0782928466796875,0.6131935119628906
1684107924747574500,4.527574462890625,0.24000157415866852,-1.4564510583877563,0.539337694644928
1684107924757591600,4.537591552734375,0.16475552320480347,-1.5852766036987305,0.5369634628295898
1684107924767609300,4.547609375,0.18928270041942596,-1.3509660959243774,0.7529687285423279
1684107924777627400,4.55762744140625,0.2337595671415329,-0.48250913619995117,1.3145910501480103
1684107924787644400,4.56764453125,0.17448265850543976,0.6904524564743042,1.8952256441116333
1684107924797662500,4.577662353515625,-0.00541961845010519,1.253016710281372,1.9801356792449951
1684107924807680300,4.58768017578125,-0.19938775897026062,1.1095980405807495,1.5987532138824463
1684107924817698600,4.597698486328125,-0.2758145332336426,0.6565463542938232,0.9687037467956543
1684107924827715300,4.60771533203125,-0.16590508818626404,0.3356729745864868,0.2758306860923767
1684107924837733600,4.617733642578125,-0.0007691030041314662,0.239786759018898,-0.3168273866176605
1684107924847751400,4.62775146484375,0.0751807913184166,0.08168792724609375,-0.7497196793556213
1684107924857768400,4.6377685546875,0.07456579059362411,-0.3139328360557556,-1.0305408239364624
1684107924867786500,4.647786376953125,0.049121689051389694,-0.8124020099639893,-1.1936155557632446
1684107924877804500,4.657804443359375,0.03166675195097923,-1.2051485776901245,-1.277726650238037
1684107924887821300,4.6678212890625,0.010611534118652344,-1.3622713088989258,-1.2912795543670654
1684107924897839600,4.677839599609375,-0.04106612130999565,-1.2504615783691406,-1.2148611545562744
1684107924907857400,4.687857421875,-0.13075952231884003,-0.9120677709579468,-1.048386573791504
1684107924917875500,4.69787548828125,-0.24072250723838806,-0.4280118942260742,-0.8055217862129211
1684107924927892500,4.707892578125,-0.3778706192970276,0.08399902284145355,-0.47479408979415894
1684107924937910500,4.71791064453125,-0.5345524549484253,0.4692990481853485,-0.07663322240114212
1684107924947928300,4.72792822265625,-0.6861177682876587,0.6544902324676514,0.31889280676841736
1684107924957945300,4.7379453125,-0.7880107760429382,0.6252653002738953,0.6537436246871948
1684107924967963400,4.74796337890625,-0.7822574973106384,0.4193935990333557,0.8959003686904907
1684107924977981400,4.7579814453125,-0.648554801940918,0.16097919642925262,0.9635920524597168
1684107924987998500,4.76799853515625,-0.4143418073654175,-0.10148704051971436,0.8062112331390381
1684107924998016300,4.778016357421875,-0.19316408038139343,-0.3370985984802246,0.45020896196365356
1684107925008034600,4.78803466796875,-0.062089160084724426,-0.4445110559463501,-0.0029305401258170605
1684107925018052600,4.798052490234375,0.003081607399508357,-0.3692983388900757,-0.4010562300682068
1684107925028069400,4.8080693359375,0.003810514695942402,-0.1836797446012497,-0.6736931204795837
1684107925038087400,4.81808740234375,-0.081285759806633,0.04191344603896141,-0.8306090235710144
1684107925048105500,4.82810546875,-0.22689701616764069,0.32217490673065186,-0.8584702014923096
1684107925058122500,4.83812255859375,-0.3691568076610565,0.5856976509094238,-0.75469571352005
1684107925068140500,4.848140625,-0.45293450355529785,0.5284591317176819,-0.42409253120422363
1684107925078158300,4.858158447265625,-0.3704301714897156,0.16522055864334106,0.09836573898792267
1684107925088175600,4.868175537109375,-0.17926926910877228,0.09294049441814423,0.4837224781513214
1684107925098193400,4.878193359375,-0.09117601066827774,0.3800862431526184,0.6008603572845459
1684107925108211500,4.88821142578125,-0.10960135608911514,0.7081765532493591,0.5488426685333252
1684107925118229500,4.8982294921875,-0.13767743110656738,0.887471079826355,0.42194125056266785
1684107925128246500,4.90824658203125,-0.17694227397441864,0.8596538305282593,0.24964618682861328
1684107925138264300,4.918264404296875,-0.2366185337305069,0.680675745010376,0.06688692420721054
1684107925148282600,4.92828271484375,-0.2820182144641876,0.520774781703949,-0.06400398164987564
1684107925158299400,4.93829931640625,-0.2839113771915436,0.4898214340209961,-0.1089770495891571
1684107925168317400,4.9483173828125,-0.27247896790504456,0.5612818002700806,-0.07808784395456314
1684107925178335500,4.95833544921875,-0.2642829716205597,0.6979132294654846,0.00011852994794026017
1684107925188352500,4.9683525390625,-0.2743297517299652,0.8534511923789978,0.08953815698623657
1684107925198370600,4.97837060546875,-0.3067269027233124,0.9716612696647644,0.15212160348892212
1684107925208388600,4.988388671875,-0.3443131744861603,0.9815096259117126,0.161040797829628
1684107925218405400,4.9984052734375,-0.34583422541618347,0.9062284231185913,0.1412399858236313
1684107925228423400,5.00842333984375,-0.28541135787963867,0.7745599150657654,0.10568465292453766
1684107925238441500,5.01844140625,-0.18306055665016174,0.5794780850410461,0.05962962284684181
1684107925248459500,5.02845947265625,-0.06609266996383667,0.31729307770729065,0.010682586580514908
1684107925258476500,5.0384765625,0.057644229382276535,0.009224818088114262,-0.04547334462404251
1684107925268494300,5.048494384765625,0.17419028282165527,-0.31749311089515686,-0.10260507464408875
1684107925278512400,5.058512451171875,0.28144845366477966,-0.6078352928161621,-0.1371004581451416
1684107925288529400,5.068529296875,0.38573595881462097,-0.8453852534294128,-0.15002290904521942
1684107925298547500,5.07854736328125,0.4763951599597931,-1.042333722114563,-0.14948339760303497
1684107925308565500,5.0885654296875,0.5666619539260864,-1.18696928024292,-0.13814206421375275
1684107925318582500,5.09858251953125,0.6758931279182434,-1.315712332725525,-0.11987709999084473
1684107925328600300,5.108600341796875,0.7886867523193359,-1.461682915687561,-0.07648275047540665
1684107925338618600,5.11861865234375,0.8473443984985352,-1.6122969388961792,-0.017540812492370605
1684107925348636400,5.128636474609375,0.7910693883895874,-1.7130964994430542,0.013929761946201324
1684107925358653400,5.1386533203125,0.6264481544494629,-1.738690972328186,-0.02520427666604519
1684107925368671500,5.14867138671875,0.45379120111465454,-1.7008165121078491,-0.12173108756542206
1684107925378689500,5.158689453125,0.3668581247329712,-1.6162453889846802,-0.24706798791885376
1684107925388706600,5.16870654296875,0.3713516891002655,-1.5083990097045898,-0.37333351373672485
1684107925398724600,5.178724609375,0.39716386795043945,-1.37281334400177,-0.49441859126091003
1684107925408742400,5.188742431640625,0.3822810649871826,-1.2195957899093628,-0.6029757261276245
1684107925418759700,5.198759765625,0.30935147404670715,-1.0251344442367554,-0.6836208701133728
1684107925428777500,5.208777587890625,0.17742007970809937,-0.7727961540222168,-0.6994751691818237
1684107925438795500,5.21879541015625,0.002236101310700178,-0.44619348645210266,-0.609531044960022
1684107925448813300,5.228813232421875,-0.2047298699617386,-0.21033325791358948,-0.2808389365673065
1684107925458830300,5.238830322265625,-0.4294058382511139,-0.335402250289917,0.41050249338150024
1684107925468848400,5.248848388671875,-0.5820044279098511,-0.4305514097213745,1.1248019933700562
1684107925478866700,5.25886669921875,-0.617958128452301,-0.1329587697982788,1.5198808908462524
1684107925488883500,5.268883544921875,-0.6322934031486511,0.40059515833854675,1.6011117696762085
1684107925498901200,5.2789013671875,-0.6879491806030273,0.9653769731521606,1.503993272781372
1684107925508919600,5.28891943359375,-0.8099374175071716,1.438982605934143,1.3520996570587158
1684107925518936300,5.298936279296875,-0.9542513489723206,1.7043920755386353,1.2114709615707397
1684107925528954600,5.30895458984375,-1.0796054601669312,1.5443354845046997,1.1450021266937256
1684107925538972400,5.318972412109375,-1.078027367591858,0.9892549514770508,1.0879534482955933
1684107925548989400,5.328989501953125,-0.926419734954834,0.4973001480102539,0.901271402835846
1684107925559007500,5.339007568359375,-0.709578275680542,0.19812141358852386,0.6040096282958984
1684107925569025500,5.349025634765625,-0.48761898279190063,0.09195929765701294,0.27139678597450256
1684107925579043300,5.359043212890625,-0.2846260070800781,0.05111156031489372,-0.015186267904937267
1684107925589060600,5.369060546875,-0.136597141623497,-0.13901470601558685,-0.17393489181995392
1684107925599078400,5.379078369140625,-0.07925999164581299,-0.5330113768577576,-0.189105823636055
1684107925609096400,5.389096435546875,-0.07472702115774155,-0.8633679747581482,-0.10390385240316391
1684107925619113500,5.399113525390625,-0.021222572773694992,-0.9287975430488586,-0.018938863649964333
1684107925629131500,5.409131591796875,0.04143628105521202,-0.7477923631668091,0.013823610730469227
1684107925639149300,5.4191494140625,0.07978375256061554,-0.4220235049724579,0.00701378146186471
1684107925649166600,5.42916650390625,0.09594088047742844,-0.027446098625659943,-0.002525927498936653
1684107925659184000,5.43918408203125,0.09811054915189743,0.3951219916343689,0.002084584441035986
1684107925669202400,5.449202392578125,0.08191533386707306,0.787379801273346,0.04044821858406067
1684107925679220200,5.45922021484375,0.07186152786016464,1.0492008924484253,0.12275402247905731
1684107925689237200,5.4692373046875,0.13422317802906036,1.0551754236221313,0.2638051509857178
1684107925699255300,5.47925537109375,0.2715285122394562,0.7808283567428589,0.4419645369052887
1684107925709273300,5.4892734375,0.3963492512702942,0.3583332896232605,0.577208936214447
1684107925719290400,5.499290283203125,0.46602365374565125,-0.040739089250564575,0.5929715037345886
1684107925729308400,5.509308349609375,0.48049288988113403,-0.3652580678462982,0.4760597348213196
1684107925739326200,5.519326171875,0.4618339538574219,-0.637705385684967,0.25379082560539246
1684107925749343500,5.529343505859375,0.43922853469848633,-0.8630463480949402,-0.009197928011417389
1684107925759361300,5.539361328125,0.4643556475639343,-0.9860087633132935,-0.2671588659286499
1684107925769379300,5.54937939453125,0.5192984938621521,-0.9950858354568481,-0.4988839626312256
1684107925779397400,5.5593974609375,0.5857101678848267,-0.8716409802436829,-0.6958762407302856
1684107925789414400,5.569414306640625,0.6496702432632446,-0.5361095666885376,-0.8374549746513367
1684107925799432200,5.57943212890625,0.6541780233383179,0.024586204439401627,-0.9193501472473145
1684107925809450500,5.589450439453125,0.5599796175956726,0.5401302576065063,-0.918045699596405
1684107925819467300,5.59946728515625,0.3630969524383545,0.6472885012626648,-0.79757159948349
1684107925829485300,5.6094853515625,0.10719938576221466,0.43625399470329285,-0.6888509392738342
1684107925839503400,5.61950341796875,-0.029415477067232132,0.27760595083236694,-0.7368814945220947
1684107925849520000,5.62952001953125,-0.024961339309811592,0.16725467145442963,-0.9202010035514832
1684107925859538400,5.639538330078125,0.04743851348757744,0.031699419021606445,-1.1877789497375488
1684107925869556200,5.64955615234375,0.10666188597679138,-0.11165960133075714,-1.4706817865371704
1684107925879573200,5.6595732421875,0.12023293226957321,-0.206368088722229,-1.654178500175476
1684107925889591300,5.66959130859375,0.1112426295876503,-0.22592101991176605,-1.641247272491455
1684107925899609300,5.679609375,0.07642445713281631,-0.15465545654296875,-1.4786903858184814
1684107925909627100,5.689627197265625,0.04762636870145798,0.015186306089162827,-1.2900283336639404
1684107925919644400,5.69964453125,0.023688338696956635,0.1782248616218567,-1.1592618227005005
1684107925929662200,5.709662109375,0.05013885721564293,0.3284098207950592,-1.0987447500228882
1684107925939680300,5.71968017578125,0.0995202511548996,0.45979633927345276,-1.1104689836502075
1684107925949697300,5.729697265625,0.12489991635084152,0.5607706904411316,-1.1430718898773193
1684107925959715300,5.73971533203125,0.12701275944709778,0.6331647038459778,-1.139082670211792
1684107925969733000,5.749733154296875,0.09457067400217056,0.6767475605010986,-1.1030566692352295
1684107925979750400,5.75975048828125,0.06558386236429214,0.7240704298019409,-1.0631436109542847
1684107925989768200,5.769768310546875,0.052908819168806076,0.7515390515327454,-1.0430879592895508
1684107925999786500,5.779786376953125,0.04971030354499817,0.7188389301300049,-1.0200037956237793
1684107926009804300,5.78980419921875,0.06700460612773895,0.6456499099731445,-0.9648860096931458
1684107926019821300,5.7998212890625,0.11038078367710114,0.6036401987075806,-0.8705126047134399
1684107926029839400,5.80983935546875,0.1359972059726715,0.6388237476348877,-0.7586970925331116
1684107926039857400,5.819857421875,0.11580206453800201,0.7420731782913208,-0.6622282862663269
1684107926049874400,5.82987451171875,0.05266623944044113,0.828962504863739,-0.6304813027381897
1684107926059892500,5.839892578125,-0.030960941687226295,0.8445115685462952,-0.6570016741752625
1684107926069910300,5.84991015625,-0.044195257127285004,0.81882643699646,-0.739666759967804
1684107926079927300,5.85992724609375,0.014327860437333584,0.7709348201751709,-0.8552436232566833
1684107926089945300,5.8699453125,0.10633155703544617,0.681489109992981,-0.977961540222168
1684107926099963100,5.879963134765625,0.21543514728546143,0.5246584415435791,-1.0834097862243652
1684107926109980400,5.88998046875,0.3088780343532562,0.3058147728443146,-1.152491569519043
1684107926119998200,5.899998291015625,0.35765600204467773,0.08195556700229645,-1.1764516830444336
1684107926130016300,5.910016357421875,0.3503211438655853,-0.09926295280456543,-1.1709461212158203
1684107926140034300,5.920034423828125,0.2839560806751251,-0.17718127369880676,-1.1642578840255737
1684107926150051300,5.93005126953125,0.18156924843788147,-0.1287631392478943,-1.1598024368286133
1684107926160069000,5.940069091796875,0.1293163150548935,-0.02214907854795456,-1.1776790618896484
1684107926170087400,5.95008740234375,0.15418997406959534,0.04728565737605095,-1.2127374410629272
1684107926180104200,5.960104248046875,0.2161601036787033,-0.003983826842159033,-1.2488210201263428
1684107926190122200,5.970122314453125,0.29353347420692444,-0.12244363129138947,-1.2460401058197021
1684107926200140300,5.980140380859375,0.35774675011634827,-0.20028482377529144,-1.2032536268234253
1684107926210157300,5.9901572265625,0.36089804768562317,-0.20340923964977264,-1.116807460784912
1684107926220175400,6.00017529296875,0.27970558404922485,-0.12115128338336945,-1.017077922821045
1684107926230193400,6.010193359375,0.10504058003425598,0.009470374323427677,-0.9027875065803528
1684107926240211200,6.020211181640625,-0.08286748826503754,0.15325292944908142,-0.7979143261909485
1684107926250228500,6.030228515625,-0.16053885221481323,0.28520721197128296,-0.7408537268638611
1684107926260246300,6.040246337890625,-0.1260947287082672,0.38221943378448486,-0.7625671029090881
1684107926270264300,6.050264404296875,-0.051253512501716614,0.4458519220352173,-0.8464553952217102
1684107926280281300,6.06028125,0.004562058486044407,0.5037772059440613,-0.9123581647872925
1684107926290299400,6.07029931640625,0.03313751146197319,0.5445438027381897,-0.8901891708374023
1684107926300317200,6.080317138671875,0.043216221034526825,0.6030247211456299,-0.7608166337013245
1684107926310334200,6.090334228515625,0.042619675397872925,0.6909068822860718,-0.5460470914840698
1684107926320352300,6.100352294921875,0.01877540722489357,0.7812667489051819,-0.30776968598365784
1684107926330370300,6.110370361328125,-0.04812479764223099,0.8867071270942688,-0.11064008623361588
1684107926340387300,6.12038720703125,-0.16961011290550232,0.9960443377494812,-0.0030095099937170744
1684107926350405000,6.130405029296875,-0.2888009250164032,1.0704354047775269,0.009587242268025875
1684107926360423400,6.14042333984375,-0.2988208830356598,1.0977733135223389,-0.08725357055664062
1684107926370441200,6.150441162109375,-0.1750696301460266,1.0449066162109375,-0.25963732600212097
1684107926380458200,6.160458251953125,0.03106466867029667,0.9170874953269958,-0.47504281997680664
1684107926390476300,6.170476318359375,0.2467266470193863,0.7422698736190796,-0.6766150593757629
1684107926400494300,6.180494384765625,0.39859670400619507,0.5758609771728516,-0.7731733322143555
1684107926410511400,6.190511474609375,0.4027895927429199,0.4736632704734802,-0.7284016013145447
1684107926420529400,6.200529296875,0.2933758795261383,0.4270421266555786,-0.5735853314399719
1684107926430547200,6.210547119140625,0.11635714024305344,0.43606916069984436,-0.39512667059898376
1684107926440564500,6.220564453125,-0.059401869773864746,0.5141795873641968,-0.2801770865917206
1684107926450582300,6.230582275390625,-0.14592744410037994,0.6244930624961853,-0.28824272751808167
1684107926460600300,6.240600341796875,-0.12301905453205109,0.7140344977378845,-0.39018580317497253
1684107926470618400,6.250618408203125,-0.015435338951647282,0.7890493273735046,-0.46158382296562195
1684107926480635400,6.260635498046875,0.09908363968133926,0.822658896446228,-0.43158525228500366
1684107926490653200,6.270653076171875,0.1391410529613495,0.7908543348312378,-0.3106556534767151
1684107926500671500,6.28067138671875,0.13996392488479614,0.7745335102081299,-0.08715791255235672
1684107926510688300,6.290688232421875,0.17010638117790222,0.8031167387962341,0.1784612536430359
1684107926520706300,6.300706298828125,0.21540534496307373,0.8458006978034973,0.3649018108844757
1684107926530724400,6.310724365234375,0.2381279617547989,0.862408459186554,0.4087350368499756
1684107926540741000,6.3207412109375,0.24287891387939453,0.8466496467590332,0.3137413263320923
1684107926550759400,6.330759521484375,0.21525314450263977,0.7965188026428223,0.13786350190639496
1684107926560777200,6.340777099609375,0.14111021161079407,0.7340907454490662,-0.03782794624567032
1684107926570795300,6.350795166015625,0.0536314956843853,0.6899613738059998,-0.13676971197128296
1684107926580812300,6.360812255859375,-0.0047927796840667725,0.6520811319351196,-0.13883812725543976
1684107926590830300,6.370830322265625,-0.014602799899876118,0.6225469708442688,-0.09678814560174942
1684107926600848100,6.38084814453125,0.0017531191697344184,0.6031039953231812,-0.06331253051757812
1684107926610865400,6.390865478515625,0.006926575675606728,0.5749711394309998,-0.07200855016708374
1684107926620883200,6.40088330078125,-0.037179701030254364,0.506483793258667,-0.12827201187610626
1684107926630901200,6.4109013671875,-0.09293884038925171,0.39167168736457825,-0.21493206918239594
1684107926640918300,6.420918212890625,-0.14653992652893066,0.27781039476394653,-0.3100758194923401
1684107926650936300,6.430936279296875,-0.1950502097606659,0.2011166661977768,-0.40162089467048645
1684107926660953900,6.440953857421875,-0.21652917563915253,0.1680765151977539,-0.4821256697177887
1684107926670970600,6.450970703125,-0.18747249245643616,0.14619998633861542,-0.5784000158309937
1684107926680988700,6.46098876953125,-0.13222292065620422,0.09963452816009521,-0.7075819373130798
1684107926691006700,6.4710068359375,-0.07887953519821167,0.04309482127428055,-0.8367252945899963
1684107926701024800,6.481024658203125,-0.04576413333415985,0.01370470691472292,-0.924538791179657
1684107926711041800,6.491041748046875,-0.033645953983068466,0.0028307540342211723,-0.9333357810974121
1684107926721059600,6.5010595703125,-0.05841762572526932,-0.009774433448910713,-0.854154109954834
1684107926731077600,6.51107763671875,-0.11845646053552628,-0.0008935900405049324,-0.7192801833152771
1684107926741094700,6.5210947265625,-0.153569296002388,0.03996036946773529,-0.583854615688324
1684107926751112700,6.53111279296875,-0.16919352114200592,0.10381977260112762,-0.49188607931137085
1684107926761130500,6.541130615234375,-0.18660055100917816,0.1766487956047058,-0.4685247540473938
1684107926771147800,6.551147705078125,-0.19741298258304596,0.24065254628658295,-0.5000554919242859
1684107926781165600,6.56116552734375,-0.18469949066638947,0.2622292935848236,-0.5763418674468994
1684107926791183600,6.57118359375,-0.1551234871149063,0.2292545884847641,-0.6778951287269592
1684107926801200600,6.58120068359375,-0.10759733617305756,0.18877629935741425,-0.8088846802711487
1684107926811218700,6.59121875,-0.05895257368683815,0.20326682925224304,-0.9410752058029175
1684107926821236700,6.60123681640625,-0.008770906366407871,0.2625848054885864,-1.0112979412078857
1684107926831254800,6.6112548828125,0.01689930260181427,0.30586597323417664,-0.9674601554870605
1684107926841271600,6.621271484375,0.030565466731786728,0.29055067896842957,-0.8119029998779297
1684107926851289900,6.631289794921875,0.07272916287183762,0.25138038396835327,-0.58234041929245
1684107926861307600,6.6413076171875,0.14197401702404022,0.24648521840572357,-0.34377044439315796
1684107926871324700,6.65132470703125,0.17515088617801666,0.32752174139022827,-0.1535903811454773
1684107926881342700,6.6613427734375,0.1349017173051834,0.4967435896396637,-0.013265452347695827
1684107926891360800,6.67136083984375,0.0201860498636961,0.7221013903617859,0.1057610735297203
1684107926901377800,6.681377685546875,-0.13573122024536133,0.9293950200080872,0.1988574117422104
1684107926911395800,6.691395751953125,-0.2715343236923218,1.0825179815292358,0.27800923585891724
1684107926921413600,6.70141357421875,-0.30408817529678345,1.139075517654419,0.36954978108406067
1684107926931431700,6.711431640625,-0.2298743724822998,1.0446898937225342,0.48479408025741577
1684107926941448700,6.72144873046875,-0.0880201905965805,0.8188264966011047,0.623975396156311
1684107926951466500,6.731466552734375,0.04789423942565918,0.5861226916313171,0.7260468602180481
1684107926961484500,6.741484619140625,0.09803031384944916,0.480785608291626,0.7216936945915222
1684107926971501600,6.75150146484375,0.08600560575723648,0.5443670153617859,0.5924493670463562
1684107926981519600,6.76151953125,0.08874522149562836,0.6852920651435852,0.3654356598854065
1684107926991537700,6.77153759765625,0.14884157478809357,0.7444334030151367,0.12863270938396454
1684107927001554700,6.7815546875,0.23586627840995789,0.6345893144607544,-0.007000475190579891
1684107927011572500,6.791572509765625,0.28321459889411926,0.396431565284729,0.0334063358604908
1684107927021590800,6.8015908203125,0.2468337118625641,0.1649351567029953,0.21302904188632965
1684107927031608600,6.811608642578125,0.16674579679965973,0.0543346032500267,0.41693902015686035
1684107927041625900,6.8216259765625,0.1032053604722023,0.04699324071407318,0.5033512711524963
1684107927051643600,6.8316435546875,0.10971705615520477,0.07033105194568634,0.43489792943000793
1684107927061661700,6.84166162109375,0.17370590567588806,0.06978875398635864,0.251065194606781
1684107927071678700,6.8516787109375,0.22620239853858948,0.034039273858070374,0.04136176034808159
1684107927081696800,6.86169677734375,0.24163956940174103,0.02776939794421196,-0.08362644910812378
1684107927091714600,6.871714599609375,0.2161528468132019,0.039895299822092056,-0.07259031385183334
1684107927101731800,6.88173193359375,0.1650528758764267,0.05065357685089111,0.08243079483509064
1684107927111749600,6.89174951171875,0.11556895822286606,0.043279021978378296,0.369263619184494
1684107927121767700,6.901767578125,0.09643960744142532,0.05259564518928528,0.6981635689735413
1684107927131784700,6.91178466796875,0.16891488432884216,0.07908238470554352,0.9257964491844177
1684107927141802800,6.921802734375,0.06118857488036156,0.10015712678432465,0.9617251753807068
1684107927151820500,6.931820556640625,-0.01368566695600748,0.1080470010638237,0.8019381761550903
1684107927161838800,6.9418388671875,-0.08960161358118057,0.06411852687597275,0.5310754776000977
1684107927171855600,6.951855712890625,-0.15551406145095825,-0.08832534402608871,0.25369685888290405
1684107927181873700,6.961873779296875,-0.3091733157634735,-0.3340759873390198,0.07972638309001923
1684107927191891700,6.9718916015625,-0.2381601482629776,-0.578175961971283,0.07756415754556656
1684107927201908500,6.981908447265625,-0.36977246403694153,-0.789340078830719,0.21901345252990723
1684107927211926800,6.9919267578125,-0.1391296535730362,-0.9016575813293457,0.37119394540786743
1684107927221944600,7.001944580078125,-0.09598816931247711,-0.9098509550094604,0.4393238425254822
1684107927231961600,7.011961669921875,0.15272684395313263,-0.8500635027885437,0.41726672649383545
1684107927241979600,7.021979736328125,0.03314953297376633,-0.7722271084785461,0.36924487352371216
1684107927251997700,7.031997802734375,0.05465695261955261,-0.6992165446281433,0.3868313133716583
1684107927262015500,7.042015380859375,-0.19620157778263092,-0.674264669418335,0.4988459050655365
1684107927272032800,7.05203271484375,-0.16429397463798523,-0.703916072845459,0.642085075378418
1684107927282050600,7.062050537109375,-0.23514404892921448,-0.8005633354187012,0.7240341901779175
1684107927292068600,7.072068603515625,-0.1001790389418602,-0.8876391053199768,0.688650906085968
1684107927302085600,7.082085693359375,0.0710311308503151,-0.9349473118782043,0.5505563020706177
1684107927312103700,7.092103759765625,0.21802563965320587,-0.9056424498558044,0.4092436730861664
1684107927322121700,7.102121826171875,0.23260848224163055,-0.8147410154342651,0.372650682926178
1684107927332138800,7.112138671875,0.0779387429356575,-0.7058185338973999,0.4671207368373871
1684107927342156500,7.122156494140625,-0.17599135637283325,-0.5879053473472595,0.6375194787979126
1684107927352174800,7.1321748046875,-0.3155825138092041,-0.492980420589447,0.7614384889602661
1684107927362192600,7.142192626953125,-0.2859729528427124,-0.4778829514980316,0.7908275723457336
1684107927372209700,7.152209716796875,-0.16377651691436768,-0.5491878986358643,0.7153391242027283
1684107927382227700,7.162227783203125,-0.014818863943219185,-0.6944422125816345,0.5553793907165527
1684107927392245800,7.172245849609375,0.13306327164173126,-0.8519644737243652,0.3740639090538025
1684107927402262800,7.1822626953125,0.17626646161079407,-0.9137764573097229,0.2395433634519577
1684107927412280600,7.192280517578125,0.07848610728979111,-0.8404556512832642,0.2027488648891449
1684107927422298600,7.202298583984375,-0.08427079021930695,-0.7009363770484924,0.2881276607513428
1684107927432315600,7.212315673828125,-0.18601340055465698,-0.5701732635498047,0.4705142378807068
1684107927442333700,7.222333740234375,-0.2092263549566269,-0.5193662047386169,0.6305879950523376
1684107927452351500,7.2323515625,-0.17124460637569427,-0.5504775047302246,0.7020376920700073
1684107927462369800,7.242369873046875,-0.11297311633825302,-0.6153488159179688,0.6504814028739929
1684107927472386600,7.252386474609375,-0.0696117952466011,-0.6917948722839355,0.4931979775428772
1684107927482404600,7.262404541015625,-0.07129624485969543,-0.7717844843864441,0.28717371821403503
1684107927492422700,7.272422607421875,-0.12499833106994629,-0.8108736276626587,0.14774510264396667
1684107927502439700,7.282439697265625,-0.19387076795101166,-0.8182061314582825,0.15099553763866425
1684107927512457700,7.292457763671875,-0.2347726672887802,-0.8347590565681458,0.31464383006095886
1684107927522475800,7.302475830078125,-0.21765616536140442,-0.8391161561012268,0.5659472942352295
1684107927532492500,7.312492431640625,-0.14279630780220032,-0.7753259539604187,0.7885292768478394
1684107927542510800,7.3225107421875,-0.07084763795137405,-0.6296018958091736,0.8961589336395264
1684107927552528600,7.332528564453125,-0.03484996035695076,-0.45496299862861633,0.8573672771453857
1684107927562546700,7.342546630859375,-0.0400288924574852,-0.34364262223243713,0.7058906555175781
1684107927572563700,7.352563720703125,-0.06800459325313568,-0.3252284526824951,0.5449390411376953
1684107927582581800,7.362581787109375,-0.0802890956401825,-0.4061112105846405,0.49832239747047424
1684107927592599600,7.372599609375,-0.09524780511856079,-0.5585827827453613,0.604410707950592
1684107927602616800,7.382616943359375,-0.09240055829286575,-0.6743375658988953,0.7683280110359192
1684107927612634600,7.392634521484375,-0.040903009474277496,-0.7212563753128052,0.843281626701355
1684107927622652700,7.402652587890625,-0.002540822606533766,-0.6986085772514343,0.760179877281189
1684107927632669700,7.412669677734375,0.005666773300617933,-0.6631983518600464,0.5378962159156799
1684107927642687500,7.4226875,-0.011599807068705559,-0.6695805191993713,0.25243932008743286
1684107927652705800,7.432705810546875,-0.050332557410001755,-0.6918081045150757,0.025369947776198387
1684107927662724400,7.442724365234375,-0.09098952263593674,-0.7104050517082214,-0.03051130287349224
1684107927672741000,7.4527412109375,-0.11439258605241776,-0.7588732242584229,0.09371265023946762
1684107927682759200,7.46275927734375,-0.10226494073867798,-0.8265485763549805,0.3321026861667633
1684107927692777200,7.472777099609375,-0.07556115835905075,-0.7932752966880798,0.571252703666687
1684107927702794000,7.4827939453125,-0.05427221953868866,-0.6471651792526245,0.6967394351959229
1684107927712812300,7.492812255859375,-0.051360320299863815,-0.4603862464427948,0.6908035278320312
1684107927722830000,7.502830078125,-0.047077424824237823,-0.326925665140152,0.5985931754112244
1684107927732847000,7.51284716796875,-0.02226368524134159,-0.28777825832366943,0.4894445836544037
1684107927742865200,7.522865234375,-0.0037213561590760946,-0.3609553575515747,0.4557587206363678
1684107927752883200,7.53288330078125,0.0137788075953722,-0.5096558928489685,0.5426443219184875
1684107927762900200,7.542900146484375,0.03624781593680382,-0.6201731562614441,0.6893137693405151
1684107927772918300,7.552918212890625,0.054947733879089355,-0.6474918723106384,0.7911469340324402
1684107927782936000,7.56293603515625,0.06729228049516678,-0.617252767086029,0.7971230745315552
1684107927792954000,7.5729541015625,0.07580108195543289,-0.5741598606109619,0.6946707367897034
1684107927802971100,7.58297119140625,0.08857493102550507,-0.5764904618263245,0.5349475145339966
1684107927812989200,7.5929892578125,0.09773992747068405,-0.6104286909103394,0.3858959972858429
1684107927823007200,7.60300732421875,0.091006338596344,-0.6543159484863281,0.3119489848613739
1684107927833024300,7.613024169921875,0.07710224390029907,-0.7106737494468689,0.319639652967453
1684107927843042000,7.6230419921875,0.08151695877313614,-0.7663968801498413,0.39783331751823425
1684107927853060400,7.633060302734375,0.09690549969673157,-0.7858904004096985,0.5149436593055725
1684107927863077000,7.6430771484375,0.10714482516050339,-0.7516416311264038,0.6102403998374939
1684107927873095200,7.65309521484375,0.10276498645544052,-0.6790944337844849,0.6610204577445984
1684107927883113200,7.66311328125,0.09707920253276825,-0.5976548790931702,0.659553587436676
1684107927893131300,7.67313134765625,0.0835423544049263,-0.543732225894928,0.625248908996582
1684107927903148300,7.683148193359375,0.05384349450469017,-0.5074089765548706,0.5746945142745972
1684107927913166300,7.693166259765625,0.0304939653724432,-0.4813837707042694,0.5388185381889343
1684107927923184000,7.70318408203125,0.018911531195044518,-0.482771635055542,0.533575713634491
1684107927933201200,7.713201171875,0.02337419055402279,-0.535599410533905,0.5759077072143555
1684107927943219200,7.72321923828125,0.029592137783765793,-0.6313552260398865,0.651192843914032
1684107927953237000,7.733237060546875,0.020942989736795425,-0.7218984365463257,0.7151614427566528
1684107927963254300,7.743254150390625,-0.009465758688747883,-0.7750403881072998,0.7371559143066406
1684107927973272000,7.75327197265625,-0.04781714454293251,-0.7647379636764526,0.7108278870582581
1684107927983290000,7.7632900390625,-0.06702061742544174,-0.7256189584732056,0.6245796084403992
1684107927993308200,7.77330810546875,-0.04726768657565117,-0.7194820046424866,0.5094854831695557
1684107928003325200,7.7833251953125,-0.0029969068709760904,-0.7490517497062683,0.3969041109085083
1684107928013343000,7.793343017578125,0.043113864958286285,-0.7883129119873047,0.32851627469062805
1684107928023361300,7.803361328125,0.05175023898482323,-0.8299230337142944,0.3151242434978485
1684107928033378000,7.8133779296875,0.018394947052001953,-0.8566723465919495,0.38166093826293945
1684107928043396400,7.823396240234375,-0.026639049872756004,-0.8001818656921387,0.491313636302948
1684107928053414100,7.8334140625,-0.06405912339687347,-0.6219008564949036,0.5997836589813232
1684107928063431200,7.84343115234375,-0.051963821053504944,-0.3438875079154968,0.6610794067382812
1684107928073449200,7.85344921875,-0.016053225845098495,-0.08675132691860199,0.6329615116119385
1684107928083467300,7.86346728515625,0.02662985771894455,0.07872650027275085,0.5321386456489563
1684107928093485000,7.873485107421875,0.08558052778244019,0.15110108256340027,0.3825441002845764
1684107928103502300,7.88350244140625,0.1700028032064438,0.15022782981395721,0.24530430138111115
1684107928113520000,7.89352001953125,0.2045341581106186,0.1357775181531906,0.18215756118297577
1684107928123538200,7.9035380859375,0.17821751534938812,0.15317729115486145,0.1958908587694168
1684107928133555200,7.91355517578125,0.10409562289714813,0.21600684523582458,0.26604118943214417
1684107928143573200,7.9235732421875,0.018027707934379578,0.3122488856315613,0.3350555896759033
1684107928153591000,7.933591064453125,-0.0055633713491261005,0.40490958094596863,0.35633423924446106
1684107928163608000,7.943608154296875,0.0393952801823616,0.4468037784099579,0.3043452203273773
1684107928173626000,7.953626220703125,0.11621548980474472,0.4368824362754822,0.1902197003364563
1684107928183644200,7.96364404296875,0.13419245183467865,0.37286293506622314,0.05402413755655289
1684107928193661200,7.9736611328125,0.10046378523111343,0.2773912847042084,-0.054119911044836044
1684107928203679000,7.983678955078125,0.043720170855522156,0.17133064568042755,-0.09375324845314026
1684107928213697300,7.993697265625,0.012838956899940968,0.08085267245769501,-0.047036875039339066
1684107928223715000,8.003715087890624,-0.011049240827560425,0.002017156220972538,0.029586829245090485
1684107928233732000,8.013732177734376,-0.027547258883714676,-0.01660126820206642,0.09258310496807098
1684107928243750100,8.023750244140626,-0.009794821962714195,0.06450894474983215,0.09183814376592636
1684107928253768200,8.033768310546876,0.03740224987268448,0.15054582059383392,0.048181209713220596
1684107928263785200,8.04378515625,0.09127640724182129,0.15817977488040924,0.013975301757454872
1684107928273803300,8.05380322265625,0.11867474019527435,0.06952288001775742,0.04131770879030228
1684107928283821000,8.063821044921875,0.0993623360991478,-0.022936664521694183,0.12385760992765427
1684107928293838300,8.07383837890625,0.06646909564733505,-0.048219919204711914,0.23904865980148315
1684107928303856000,8.083856201171875,0.06988256424665451,-0.0067446413449943066,0.3730188012123108
1684107928313874200,8.093874267578125,0.09279374033212662,0.0722724124789238,0.5183658599853516
1684107928323892200,8.103892333984374,0.09884133189916611,0.20210134983062744,0.6401848196983337
1684107928333909200,8.1139091796875,0.06618858128786087,0.42044883966445923,0.6888200044631958
1684107928343927000,8.123927001953126,0.03510994091629982,0.6740762591362,0.6586683392524719
1684107928353945300,8.1339453125,0.052111826837062836,0.837783694267273,0.5684175491333008
1684107928363962000,8.143962158203125,0.13088302314281464,0.813851535320282,0.43502962589263916
1684107928373980200,8.153980224609375,0.22954222559928894,0.6343981623649597,0.2896149158477783
1684107928383998200,8.163998291015625,0.25709521770477295,0.4487919807434082,0.16615328192710876
1684107928394015000,8.174014892578125,0.20629622042179108,0.4015778601169586,0.08001254498958588
1684107928404033300,8.184033203125,0.146757110953331,0.52418053150177,0.00867092702537775
1684107928414051000,8.194051025390625,0.112209253013134,0.7288859486579895,-0.04495661333203316
1684107928424068000,8.204068115234374,0.11279170960187912,0.874595582485199,-0.09941382706165314
1684107928434086100,8.214086181640624,0.1561650186777115,0.9103671908378601,-0.18886728584766388
1684107928444104200,8.224104248046874,0.19667311012744904,0.8611643314361572,-0.3414875864982605
1684107928454122000,8.2341220703125,0.1767587810754776,0.7649762630462646,-0.54781174659729
1684107928464139300,8.24413916015625,0.08828255534172058,0.6643072366714478,-0.778627872467041
1684107928474157000,8.254156982421875,0.012452507391571999,0.5843953490257263,-1.0033729076385498
1684107928484175000,8.264175048828125,-0.0010025231167674065,0.5058337450027466,-1.2174700498580933
1684107928494192000,8.274192138671875,0.024565421044826508,0.43232858180999756,-1.4050495624542236
1684107928504210200,8.284210205078125,0.09418993443250656,0.3522813320159912,-1.5640239715576172
1684107928514228200,8.294228271484375,0.151589035987854,0.23685301840305328,-1.6901464462280273
1684107928524245200,8.304245361328125,0.165298193693161,0.05519302934408188,-1.7855069637298584
1684107928534263000,8.314262939453124,0.14006154239177704,-0.1505739688873291,-1.8338979482650757
1684107928544281300,8.32428125,0.07095596939325333,-0.2644030749797821,-1.8490561246871948
1684107928554299100,8.334299072265624,-0.04763086140155792,-0.18388505280017853,-1.8281787633895874
1684107928564316200,8.344316162109376,-0.16706830263137817,0.0459289588034153,-1.7651793956756592
1684107928574334200,8.354334228515626,-0.264098197221756,0.2723360061645508,-1.6545372009277344
1684107928584352300,8.364352294921876,-0.28988638520240784,0.43263325095176697,-1.499951720237732
1684107928594369300,8.374369384765625,-0.23929056525230408,0.49951454997062683,-1.344688892364502
1684107928604387300,8.38438720703125,-0.15833759307861328,0.4978635013103485,-1.2062139511108398
1684107928614405000,8.394405029296875,-0.13179625570774078,0.4738849103450775,-1.087978482246399
1684107928624422100,8.404422119140625,-0.19441479444503784,0.47222450375556946,-0.9898384809494019
1684107928634440200,8.414440185546875,-0.23112407326698303,0.5215332508087158,-0.9104036092758179
1684107928644458000,8.4244580078125,-0.25642678141593933,0.5113091468811035,-0.8476333618164062
1684107928654475300,8.434475341796874,-0.3128485083580017,0.40875160694122314,-0.8033639192581177
1684107928664493000,8.4444931640625,-0.38709190487861633,0.30633026361465454,-0.7601436972618103
1684107928674510800,8.4545107421875,-0.3949168026447296,0.29937463998794556,-0.7069912552833557
1684107928684529200,8.464529052734376,-0.26992613077163696,0.37607622146606445,-0.6417388319969177
1684107928694546000,8.4745458984375,-0.061798494309186935,0.5273877382278442,-0.5855575799942017
1684107928704564000,8.48456396484375,0.15383286774158478,0.6594594120979309,-0.5349263548851013
1684107928714582000,8.49458203125,0.20900611579418182,0.6414290070533752,-0.45716845989227295
1684107928724599000,8.50459912109375,0.15036292374134064,0.5821167826652527,-0.3796733021736145
1684107928734617000,8.5146171875,0.09599767625331879,0.5623031258583069,-0.310600221157074
1684107928744635100,8.52463525390625,0.07084621489048004,0.5057008266448975,-0.26013848185539246
1684107928754652000,8.53465185546875,0.08033479005098343,0.409274697303772,-0.2430335432291031
1684107928764670200,8.544670166015624,0.1603236049413681,0.30333685874938965,-0.28752943873405457
1684107928774688000,8.55468798828125,0.25341278314590454,0.18277159333229065,-0.4146817922592163
1684107928784706000,8.5647060546875,0.3319355249404907,0.10504420846700668,-0.5979806780815125
1684107928794723000,8.57472314453125,0.37625399231910706,0.09860042482614517,-0.7727945446968079
1684107928804741000,8.5847412109375,0.3987283408641815,0.16570977866649628,-0.861683189868927
1684107928814759000,8.594759033203125,0.3874858021736145,0.250108540058136,-0.8235262036323547
1684107928824776000,8.60477587890625,0.330674946308136,0.2645361125469208,-0.6656973361968994
1684107928834794000,8.6147939453125,0.2892998158931732,0.227005273103714,-0.441535621881485
1684107928844812000,8.62481201171875,0.29212823510169983,0.22813116014003754,-0.23484326899051666
1684107928854829000,8.6348291015625,0.2767716348171234,0.29555678367614746,-0.12361741811037064
1684107928864846800,8.644846923828124,0.2285837084054947,0.4462280869483948,-0.1427895724773407
1684107928874865200,8.654865234375,0.1773570030927658,0.5740388035774231,-0.2379312664270401
1684107928884882000,8.6648818359375,0.16700169444084167,0.5892612338066101,-0.35494527220726013
1684107928894900000,8.67489990234375,0.19370733201503754,0.48529914021492004,-0.4676060378551483
1684107928904918000,8.68491796875,0.2234956920146942,0.3037055432796478,-0.5629127621650696
1684107928914936000,8.69493603515625,0.25273481011390686,0.1037982925772667,-0.6252747178077698
1684107928924953000,8.704953125,0.2734701335430145,-0.09445567429065704,-0.647106945514679
1684107928934971100,8.71497119140625,0.24848327040672302,-0.19570079445838928,-0.6649184823036194
1684107928944989000,8.724989013671875,0.18922175467014313,-0.10275851935148239,-0.6980066299438477
1684107928955006200,8.735006103515625,0.08952950686216354,0.1100538820028305,-0.7552105188369751
1684107928965024000,8.74502392578125,-0.018794314935803413,0.26858341693878174,-0.8159204125404358
1684107928975042000,8.7550419921875,-0.12835782766342163,0.28238874673843384,-0.8651239275932312
1684107928985059000,8.76505908203125,-0.22067447006702423,0.22395044565200806,-0.9347164034843445
1684107928995077000,8.7750771484375,-0.3128315508365631,0.14963147044181824,-1.0321497917175293
1684107929005095000,8.785094970703126,-0.3770768940448761,0.12595322728157043,-1.135670781135559
1684107929015112200,8.7951123046875,-0.3769104480743408,0.12838362157344818,-1.207491159439087
1684107929025130000,8.8051298828125,-0.2914544343948364,0.11242933571338654,-1.2128875255584717
1684107929035148000,8.81514794921875,-0.13300354778766632,0.03440271317958832,-1.141222357749939
1684107929045166000,8.825166015625,0.007895897142589092,-0.07438546419143677,-1.011288046836853
1684107929055182800,8.835182861328125,0.026360126212239265,-0.21038565039634705,-0.8197828531265259
1684107929065201200,8.845201171875,-0.020194001495838165,-0.23170585930347443,-0.6026393175125122
1684107929075219200,8.85521923828125,-0.0822342038154602,-0.12020249664783478,-0.37232279777526855
1684107929085236000,8.865236083984374,-0.15386036038398743,0.12444258481264114,-0.19665850698947906
1684107929095254000,8.87525390625,-0.2378428727388382,0.43992650508880615,-0.11892669647932053
1684107929105272000,8.88527197265625,-0.34020981192588806,0.6843990087509155,-0.095436692237854
1684107929115289000,8.8952890625,-0.3738548457622528,0.8156739473342896,-0.06891506910324097
1684107929125307100,8.90530712890625,-0.25686466693878174,0.8815180063247681,-0.026346083730459213
1684107929135325000,8.915324951171876,-0.05810285359621048,0.8598036766052246,0.020811574533581734
1684107929145342200,8.92534228515625,0.07255459576845169,0.7306767702102661,0.0840209499001503
1684107929155360000,8.935360107421875,0.11932636797428131,0.6966152191162109,0.14500761032104492
1684107929165378000,8.9453779296875,0.13375957310199738,0.7972962856292725,0.16409876942634583
1684107929175395800,8.955395751953125,0.11639869213104248,0.8838047981262207,0.13721922039985657
1684107929185413000,8.9654130859375,0.08188111335039139,0.8993155360221863,0.07634028792381287
1684107929195431000,8.975430908203125,0.04347061365842819,0.8545272350311279,-0.011440702714025974
1684107929205449200,8.98544921875,-0.036874353885650635,0.7939648628234863,-0.10813658684492111
1684107929215466000,8.995466064453124,-0.13800816237926483,0.7201151251792908,-0.19198542833328247
1684107929225484000,9.005484130859376,-0.2177518755197525,0.6294280290603638,-0.23771731555461884
1684107929235502000,9.015502197265626,-0.22242918610572815,0.49158355593681335,-0.2484288215637207
1684107929245519000,9.02551904296875,-0.1449354737997055,0.3163592219352722,-0.26265186071395874
1684107929255537200,9.035537109375,-0.006132315844297409,0.16976842284202576,-0.31334513425827026
1684107929265555200,9.04555517578125,0.17438288033008575,0.08167621493339539,-0.3928408622741699
1684107929275572000,9.055572021484375,0.33405938744544983,0.04999658465385437,-0.4638708531856537
1684107929285590000,9.065590087890625,0.42187976837158203,0.07964688539505005,-0.4897139072418213
1684107929295608000,9.075608154296875,0.41710472106933594,0.14968056976795197,-0.4449962079524994
1684107929305626000,9.085626220703125,0.33191946148872375,0.23943069577217102,-0.3245174288749695
1684107929315643100,9.09564306640625,0.18539713323116302,0.32870543003082275,-0.1621953845024109
1684107929325661000,9.105660888671874,0.02714305929839611,0.40957409143447876,0.009813358075916767
1684107929335679000,9.115678955078126,-0.11038444191217422,0.4486943483352661,0.1465432494878769
1684107929345696000,9.125696044921876,-0.17516466975212097,0.43237385153770447,0.2294948846101761
1684107929355714000,9.135714111328125,-0.1607138216495514,0.3685826361179352,0.29324057698249817
1684107929365731800,9.14573193359375,-0.06383684277534485,0.3146965205669403,0.34066951274871826
1684107929375749000,9.1557490234375,0.06391259282827377,0.3020763099193573,0.3647732436656952
1684107929385767000,9.165766845703125,0.17268840968608856,0.334233820438385,0.35445520281791687
1684107929395785200,9.17578515625,0.22999511659145355,0.4384784698486328,0.3041140139102936
1684107929405803000,9.185802978515625,0.2548910975456238,0.5265312790870667,0.252908855676651
1684107929415820000,9.195820068359374,0.25190913677215576,0.5010536313056946,0.22338613867759705
1684107929425838000,9.205838134765624,0.20061913132667542,0.3059919774532318,0.21258644759655
1684107929435856100,9.215856201171874,0.10047174990177155,0.02407504990696907,0.16889835894107819
1684107929445873000,9.225872802734376,-0.04589706286787987,-0.2186313420534134,0.06142456457018852
1684107929455891200,9.23589111328125,-0.17217989265918732,-0.3460875451564789,-0.10037419199943542
1684107929465909000,9.245908935546876,-0.23592160642147064,-0.38660621643066406,-0.2763088345527649
1684107929475926300,9.25592626953125,-0.2507447898387909,-0.4232398569583893,-0.4293101131916046
1684107929485944000,9.265944091796875,-0.22717934846878052,-0.481207013130188,-0.527837336063385
1684107929495962000,9.275962158203125,-0.1893129199743271,-0.569002091884613,-0.5783268809318542
1684107929505979100,9.285979248046875,-0.15194107592105865,-0.6668698191642761,-0.6007111072540283
1684107929515997000,9.295996826171875,-0.11596576869487762,-0.7275304794311523,-0.616723895072937
1684107929526015000,9.306014892578125,-0.09350418299436569,-0.7311797738075256,-0.6282245516777039
1684107929536033300,9.316033203125,-0.0947827622294426,-0.6885347962379456,-0.6418841481208801
1684107929546050000,9.326050048828124,-0.12688030302524567,-0.6094725131988525,-0.6514648795127869
1684107929556067800,9.33606787109375,-0.18704724311828613,-0.5054912567138672,-0.634715735912323
1684107929566086100,9.346086181640626,-0.2657902240753174,-0.3935321271419525,-0.577461838722229
1684107929576103000,9.35610302734375,-0.33984288573265076,-0.28158241510391235,-0.4532323181629181
1684107929586121000,9.366120849609375,-0.3904961049556732,-0.219949871301651,-0.2789766192436218
1684107929596139000,9.376138916015625,-0.41977623105049133,-0.24737510085105896,-0.08566416054964066
1684107929606156000,9.386156005859375,-0.4458473324775696,-0.3642493486404419,0.12666809558868408
1684107929616174000,9.396174072265625,-0.4718291461467743,-0.4990825355052948,0.31904685497283936
1684107929626192100,9.406192138671875,-0.46289172768592834,-0.5216779708862305,0.4369991719722748
1684107929636209000,9.416208984375,-0.4128085672855377,-0.3850235044956207,0.4541887938976288
1684107929646227200,9.426227294921874,-0.3387450575828552,-0.11197048425674438,0.40394866466522217
1684107929656245000,9.436244873046874,-0.29065582156181335,0.23287425935268402,0.3477088212966919
1684107929666263000,9.446262939453124,-0.2737601697444916,0.523444652557373,0.358967125415802
1684107929676280000,9.456280029296876,-0.2537686228752136,0.6376596093177795,0.4567466676235199
1684107929686298000,9.466298095703126,-0.20247790217399597,0.5467912554740906,0.6433826684951782
1684107929696316000,9.47631591796875,-0.11677631735801697,0.33755865693092346,0.8629589676856995
1684107929706333200,9.486333251953125,-0.02317754179239273,0.12027561664581299,1.01295006275177
1684107929716351000,9.49635107421875,0.05251295864582062,-0.0518689788877964,1.0566983222961426
1684107929726369000,9.506369140625,0.08897649496793747,-0.1877203732728958,1.0042296648025513
1684107929736386000,9.516385986328125,0.09593187272548676,-0.2793019711971283,0.8866090178489685
1684107929746403800,9.52640380859375,0.09186181426048279,-0.35351502895355225,0.7287049293518066
1684107929756422100,9.536422119140624,0.08885110914707184,-0.42154520750045776,0.567294716835022
1684107929766439000,9.54643896484375,0.08551549166440964,-0.4917527139186859,0.4312235116958618
1684107929776457000,9.55645703125,0.09987179189920425,-0.547977864742279,0.34962213039398193
1684107929786475000,9.56647509765625,0.128814697265625,-0.6052486896514893,0.34298497438430786
1684107929796493000,9.5764931640625,0.13819541037082672,-0.6654326915740967,0.4020397663116455
1684107929806510000,9.586510009765625,0.09975803643465042,-0.6712909936904907,0.49124494194984436
1684107929816528100,9.596528076171875,0.021514099091291428,-0.5871527194976807,0.5786594748497009
1684107929826546000,9.6065458984375,-0.04975367709994316,-0.4523949921131134,0.630298912525177
1684107929836563200,9.616563232421875,-0.08286875486373901,-0.34516096115112305,0.6143378019332886
1684107929846581000,9.6265810546875,-0.05862871930003166,-0.2981431186199188,0.5530776381492615
1684107929856599000,9.63659912109375,0.0032453001476824284,-0.31310129165649414,0.5133824348449707
1684107929866616000,9.646615966796874,0.088679738342762,-0.38938698172569275,0.5456179976463318
1684107929876634000,9.656634033203124,0.1464117467403412,-0.5465760827064514,0.6421900987625122
1684107929886652000,9.66665185546875,0.068210668861866,-0.7360811233520508,0.7597429156303406
1684107929896669200,9.676669189453126,-0.10139540582895279,-0.8472728729248047,0.8507463335990906
1684107929906687000,9.68668701171875,-0.22023224830627441,-0.844565212726593,0.8723887205123901
1684107929916705000,9.696705078125,-0.2271098643541336,-0.7517498135566711,0.7976614832878113
1684107929926723000,9.70672314453125,-0.10721161216497421,-0.6455726623535156,0.6728630065917969
1684107929936740000,9.716739990234375,0.01744164153933525,-0.6044321656227112,0.5560228824615479
1684107929946758100,9.726758056640625,0.04497915133833885,-0.6181292533874512,0.5219677686691284
1684107929956776200,9.736776123046875,-0.013686290942132473,-0.6714215278625488,0.5965913534164429
1684107929966793000,9.74679296875,-0.13583746552467346,-0.7250059843063354,0.7636845111846924
1684107929976811000,9.75681103515625,-0.2387406826019287,-0.6646156311035156,0.9490287899971008
1684107929986829000,9.7668291015625,-0.24238444864749908,-0.5337459444999695,1.0477739572525024
1684107929996846000,9.77684619140625,-0.15204843878746033,-0.4876229465007782,1.0336413383483887
1684107930006864100,9.786864013671876,-0.05317211151123047,-0.5359112024307251,0.924676239490509
1684107930016882000,9.7968818359375,-0.03529031574726105,-0.6246490478515625,0.763884961605072
1684107930026899200,9.806899169921875,-0.0948987752199173,-0.7083842158317566,0.6305060982704163
1684107930036917000,9.8169169921875,-0.18620604276657104,-0.7369796633720398,0.540422260761261
1684107930046935000,9.82693505859375,-0.2540234625339508,-0.6774313449859619,0.4870593845844269
1684107930056952800,9.836952880859375,-0.24616166949272156,-0.6155518293380737,0.45669764280319214
1684107930066970000,9.84697021484375,-0.17480987310409546,-0.6281774044036865,0.44739997386932373
1684107930076988000,9.85698779296875,-0.07854297757148743,-0.7252591848373413,0.45179498195648193
1684107930087006200,9.867006103515624,-0.029829539358615875,-0.8639829754829407,0.4719217121601105
1684107930097023000,9.87702294921875,-0.042635347694158554,-0.9473106265068054,0.4982292056083679
1684107930107041000,9.887041015625,-0.07549460232257843,-0.9411924481391907,0.5094186663627625
1684107930117059000,9.89705908203125,-0.10155417025089264,-0.8421905040740967,0.5164204239845276
1684107930127076000,9.907076171875,-0.10664910078048706,-0.6820027828216553,0.5278688073158264
1684107930137094100,9.91709423828125,-0.10894794017076492,-0.5236504077911377,0.5534889698028564
1684107930147112200,9.9271123046875,-0.12279125303030014,-0.4262092113494873,0.6040835976600647
1684107930157129000,9.93712890625,-0.1344337910413742,-0.437257319688797,0.6829177141189575
1684107930167147300,9.947147216796875,-0.15961261093616486,-0.519590437412262,0.7680808305740356
1684107930177165000,9.9571650390625,-0.17086446285247803,-0.5680255889892578,0.8320161700248718
1684107930187183000,9.96718310546875,-0.1293114572763443,-0.508996307849884,0.8448037505149841
1684107930197200100,9.9772001953125,-0.04331079497933388,-0.3979129195213318,0.8112572431564331
1684107930207218000,9.987218017578124,0.04866670444607735,-0.34708064794540405,0.7595412135124207
1684107930217236000,9.997236083984374,0.1360924243927002,-0.366213858127594,0.7601196765899658
1684107930227253000,10.0072529296875,0.17844326794147491,-0.42246055603027344,0.8229035139083862
1684107930237271000,10.01727099609375,0.15260262787342072,-0.46016159653663635,0.91384357213974
1684107930247288800,10.027288818359375,0.12643930315971375,-0.4544489085674286,1.0139893293380737
1684107930257306000,10.03730615234375,0.11562632769346237,-0.4159500002861023,1.0719661712646484
1684107930267324000,10.047323974609375,0.11776098608970642,-0.3818531036376953,1.0325590372085571
1684107930277342200,10.05734228515625,0.1436397135257721,-0.357896089553833,0.9001784920692444
1684107930287360000,10.067360107421875,0.20165850222110748,-0.38468050956726074,0.7111057639122009
1684107930297377000,10.077376953125,0.25312167406082153,-0.446230411529541,0.5369107723236084
1684107930307395000,10.08739501953125,0.2248147577047348,-0.5360063910484314,0.4384385049343109
1684107930317413000,10.0974130859375,0.12835825979709625,-0.6319462060928345,0.4040243327617645
1684107930327430000,10.107429931640626,0.0747658759355545,-0.6507810354232788,0.4126203656196594
1684107930337448200,10.1174482421875,0.05518285557627678,-0.5811497569084167,0.4247121810913086
1684107930347466000,10.127466064453126,0.030415818095207214,-0.46547457575798035,0.43275314569473267
1684107930357483300,10.137483154296875,0.007058032788336277,-0.3687421679496765,0.41804319620132446
1684107930367501000,10.1475009765625,0.00025503343204036355,-0.36181309819221497,0.3960108757019043
1684107930377519000,10.15751904296875,0.00929912831634283,-0.41460174322128296,0.3499065041542053
1684107930387536100,10.1675361328125,-0.03413473442196846,-0.4634290039539337,0.29729151725769043
1684107930397554200,10.17755419921875,-0.06862133741378784,-0.47561776638031006,0.21657508611679077
1684107930407572000,10.187572021484375,-0.07462958246469498,-0.4710856080055237,0.11185234040021896
1684107930417590000,10.197590087890624,-0.04895298182964325,-0.4399886727333069,-0.0018222896615043283
1684107930427607000,10.20760693359375,-0.011956035159528255,-0.3797619938850403,-0.08663889765739441
1684107930437624800,10.217624755859376,0.006834163796156645,-0.32574084401130676,-0.10085218399763107
1684107930447643100,10.22764306640625,0.019081659615039825,-0.330319881439209,-0.052696045488119125
1684107930457660000,10.237659912109375,0.008365366607904434,-0.37422579526901245,0.03614780679345131
1684107930467678000,10.247677978515625,-0.01603187620639801,-0.3919766843318939,0.10512510687112808
1684107930477696000,10.257696044921875,-0.03689561411738396,-0.3435417711734772,0.1055741161108017
1684107930487713000,10.267713134765625,-0.0809059664607048,-0.25413915514945984,0.03606203570961952
1684107930497731000,10.27773095703125,-0.1283363401889801,-0.17301474511623383,-0.06859380006790161
1684107930507749000,10.2877490234375,-0.13331738114356995,-0.14580470323562622,-0.16279588639736176
1684107930517766000,10.297765869140624,-0.12250573933124542,-0.19018948078155518,-0.18931937217712402
1684107930527784200,10.3077841796875,-0.10564913600683212,-0.2621113359928131,-0.13940459489822388
1684107930537802000,10.317802001953124,-0.08463412523269653,-0.2994152903556824,-0.028230398893356323
1684107930547820000,10.327820068359374,-0.06921019405126572,-0.2904743552207947,0.09845253825187683
1684107930557837000,10.337837158203126,-0.07226616889238358,-0.22006650269031525,0.2011677324771881
1684107930567855000,10.347855224609376,-0.052882902324199677,-0.11543701589107513,0.2584386467933655
1684107930577873000,10.357872802734375,0.022746877744793892,-0.03664234280586243,0.2717592418193817
1684107930587890200,10.36789013671875,0.11583679914474487,-0.031123220920562744,0.27189692854881287
1684107930597908000,10.377907958984375,0.14927013218402863,-0.06075434759259224,0.28995367884635925
1684107930607926000,10.387926025390625,0.16326725482940674,-0.09288768470287323,0.3180067539215088
1684107930617943000,10.397943115234375,0.1538415253162384,-0.08400392532348633,0.3502829372882843
1684107930627961000,10.407961181640625,0.12674793601036072,-0.0016154777258634567,0.36636754870414734
1684107930637979100,10.417979248046874,0.1118166595697403,0.11675058305263519,0.3702720105648041
1684107930647996000,10.427995849609376,0.10396821051836014,0.20012624561786652,0.3756347596645355
1684107930658014000,10.438013916015626,0.10708864033222198,0.2055785357952118,0.35763445496559143
1684107930668032500,10.448032470703126,0.11399634182453156,0.15225104987621307,0.31220129132270813
1684107930678050600,10.458050537109376,0.12546630203723907,0.05509520694613457,0.2604621946811676
1684107930688067300,10.4680673828125,0.13655723631381989,-0.06956594437360764,0.2170705944299698
1684107930698085600,10.478085693359375,0.13050733506679535,-0.15944044291973114,0.20118138194084167
1684107930708103400,10.488103515625,0.10612767189741135,-0.16126026213169098,0.2155257910490036
1684107930718120400,10.498120361328125,0.06519702076911926,-0.08483793586492538,0.28544095158576965
1684107930728138500,10.508138427734375,0.06541172415018082,0.019919903948903084,0.4187989830970764
1684107930738156500,10.518156494140625,0.12292109429836273,0.06351691484451294,0.5976675748825073
1684107930748173600,10.528173583984374,0.15936361253261566,0.06023697555065155,0.775961697101593
1684107930758191400,10.53819140625,0.1679653525352478,0.06312890350818634,0.9213926792144775
1684107930768209400,10.54820947265625,0.15590716898441315,0.12659725546836853,1.0031838417053223
1684107930778226400,10.558226318359376,0.1482311338186264,0.22898142039775848,1.0039108991622925
1684107930788244500,10.568244384765626,0.15112997591495514,0.3140668272972107,0.9367631077766418
1684107930798262300,10.57826220703125,0.16551822423934937,0.35063257813453674,0.820264458656311
1684107930808280600,10.588280517578125,0.17508800327777863,0.3169901967048645,0.6837621331214905
1684107930818297300,10.59829736328125,0.16960960626602173,0.2341831922531128,0.5537101030349731
1684107930828315400,10.6083154296875,0.14952509105205536,0.14988678693771362,0.44747230410575867
1684107930838333400,10.61833349609375,0.11736634373664856,0.11397938430309296,0.3653278946876526
1684107930848350500,10.6283505859375,0.09622897952795029,0.11797208338975906,0.2954424023628235
1684107930858368500,10.638368408203124,0.08111527562141418,0.14047099649906158,0.21945630013942719
1684107930868386600,10.648386474609374,0.06625281274318695,0.15783116221427917,0.12640012800693512
1684107930878403300,10.6584033203125,0.05606301873922348,0.18964901566505432,0.019724532961845398
1684107930888421600,10.668421630859376,0.06116568297147751,0.23549525439739227,-0.0777079313993454
1684107930898439400,10.678439453125,0.07788261026144028,0.3008127510547638,-0.16249419748783112
1684107930908456400,10.68845654296875,0.0958821102976799,0.3451736271381378,-0.22051669657230377
1684107930918474500,10.698474609375,0.11419960111379623,0.3529641628265381,-0.24895712733268738
1684107930928492500,10.708492431640625,0.13071222603321075,0.322712242603302,-0.24446316063404083
1684107930938510300,10.71851025390625,0.13416793942451477,0.26881173253059387,-0.23625557124614716
1684107930948527600,10.728527587890625,0.1440826952457428,0.1865181177854538,-0.21984659135341644
1684107930958545400,10.73854541015625,0.14937599003314972,0.08717608451843262,-0.20472170412540436
1684107930968563500,10.7485634765625,0.13431355357170105,0.012104857712984085,-0.18838709592819214
1684107930978580500,10.75858056640625,0.12673605978488922,-0.007976974360644817,-0.2003665268421173
1684107930988598300,10.768598388671874,0.1307477355003357,-0.011261893436312675,-0.2539859712123871
1684107930998616600,10.778616455078126,0.08102677017450333,-0.045548759400844574,-0.3379437029361725
1684107931008633300,10.78863330078125,-0.03194262087345123,-0.01375257596373558,-0.41415533423423767
1684107931018651400,10.7986513671875,-0.15062133967876434,0.08099710941314697,-0.43637701869010925
1684107931028669400,10.80866943359375,-0.2234737128019333,0.15829980373382568,-0.38708925247192383
1684107931038687500,10.8186875,-0.2340880036354065,0.20312052965164185,-0.2880135476589203
1684107931048704500,10.82870458984375,-0.1997641921043396,0.252302885055542,-0.13554584980010986
1684107931058722600,10.83872265625,-0.16395080089569092,0.34318166971206665,0.05309118330478668
1684107931068740400,10.848740234375,-0.14710001647472382,0.46354395151138306,0.23846197128295898
1684107931078757600,10.858757568359374,-0.17188365757465363,0.5772705078125,0.4043697118759155
1684107931088775400,10.868775390625,-0.21532714366912842,0.6809234619140625,0.5374715328216553
1684107931098793500,10.87879345703125,-0.238242045044899,0.8003992438316345,0.6374226808547974
1684107931108810500,10.888810546875,-0.2355917990207672,0.9081563353538513,0.6711931824684143
1684107931118828500,10.89882861328125,-0.21055781841278076,0.9879525899887085,0.638646125793457
1684107931128846300,10.908846435546875,-0.1837693452835083,1.0011025667190552,0.5397734045982361
1684107931138863600,10.918863525390625,-0.16142834722995758,0.9271582961082458,0.38058826327323914
1684107931148881400,10.92888134765625,-0.14256973564624786,0.8177586197853088,0.2033262997865677
1684107931158899500,10.9388994140625,-0.12081784009933472,0.7018410563468933,0.04053976759314537
1684107931168917500,10.94891748046875,-0.08094857633113861,0.6110052466392517,-0.09127327799797058
1684107931178934500,10.9589345703125,-0.012621186673641205,0.5681267380714417,-0.17202699184417725
1684107931188952300,10.968952392578124,0.05643541365861893,0.5556183457374573,-0.19739724695682526
1684107931198970600,10.978970703125,0.072654590010643,0.5332973003387451,-0.18650305271148682
1684107931208987400,10.9889873046875,0.03455185890197754,0.49151772260665894,-0.15567061305046082
1684107931219005700,10.999005615234376,0.007163912057876587,0.45064911246299744,-0.13264864683151245
1684107931229023500,11.0090234375,0.013999284245073795,0.43620553612709045,-0.15936869382858276
1684107931239040300,11.019040283203125,0.08455121517181396,0.463776171207428,-0.24899552762508392
1684107931249058600,11.02905859375,0.19232143461704254,0.4955391585826874,-0.3791206479072571
1684107931259076400,11.039076416015625,0.27882465720176697,0.49349597096443176,-0.5278432965278625
1684107931269093600,11.04909375,0.31571686267852783,0.47879454493522644,-0.6620209217071533
1684107931279111400,11.059111328125,0.3262999951839447,0.48140576481819153,-0.7734079360961914
1684107931289129500,11.06912939453125,0.3313213288784027,0.4896675944328308,-0.8647178411483765
1684107931299147300,11.079147216796875,0.33684951066970825,0.48005014657974243,-0.9504191875457764
1684107931309164500,11.08916455078125,0.34548836946487427,0.4480879604816437,-1.0569729804992676
1684107931319182300,11.099182373046874,0.3312798738479614,0.41102102398872375,-1.1942882537841797
1684107931329200400,11.109200439453126,0.29818058013916016,0.3814322054386139,-1.3491973876953125
1684107931339217400,11.119217529296876,0.2305416315793991,0.3432254195213318,-1.4927406311035156
1684107931349235500,11.1292353515625,0.1382993906736374,0.28268370032310486,-1.5981638431549072
1684107931359253500,11.13925341796875,0.04864486679434776,0.2416159063577652,-1.649729609489441
1684107931369270500,11.1492705078125,-0.010253140702843666,0.22709190845489502,-1.6340413093566895
1684107931379288300,11.159288330078125,-0.03267322853207588,0.24979563057422638,-1.5982109308242798
1684107931389306600,11.169306640625,-0.05321730300784111,0.2936318814754486,-1.5584685802459717
1684107931399323400,11.179323486328125,-0.1117144301533699,0.33086153864860535,-1.5224331617355347
1684107931409341700,11.189341796875,-0.22024127840995789,0.37827885150909424,-1.476807713508606
1684107931419359500,11.199359375,-0.3761887848377228,0.4407278299331665,-1.3911547660827637
1684107931429377500,11.20937744140625,-0.5450143218040466,0.5035934448242188,-1.2475067377090454
1684107931439394600,11.21939453125,-0.6843831539154053,0.4578930735588074,-1.0738883018493652
1684107931449412600,11.22941259765625,-0.7689027786254883,0.3548811078071594,-0.9485244154930115
1684107931459430400,11.239430419921876,-0.7861621975898743,0.2679302394390106,-0.9002562165260315
1684107931469447400,11.249447509765625,-0.722969651222229,0.21138174831867218,-0.898737370967865
1684107931479465500,11.259465576171875,-0.570920467376709,0.20149822533130646,-0.9150418043136597
1684107931489483300,11.269483154296875,-0.3592502176761627,0.2571951150894165,-0.8939840197563171
1684107931499500500,11.27950048828125,-0.18287543952465057,0.34432870149612427,-0.8150026798248291
1684107931509518300,11.289518310546875,-0.0758463591337204,0.40245893597602844,-0.6878758668899536
1684107931519536400,11.299536376953125,-0.058617569506168365,0.3845425248146057,-0.538636326789856
1684107931529554400,11.309554443359374,-0.04820555821061134,0.35858210921287537,-0.40312379598617554
1684107931539571500,11.319571533203124,-0.026957262307405472,0.35042431950569153,-0.3059287965297699
1684107931549589500,11.329589599609376,-0.018691329285502434,0.34320786595344543,-0.2645193636417389
1684107931559607600,11.339607666015626,-0.019346199929714203,0.3363931179046631,-0.2546691298484802
1684107931569624300,11.349624267578125,-0.013118399307131767,0.3360902965068817,-0.2574087083339691
1684107931579642600,11.359642578125,0.01954287476837635,0.3222804665565491,-0.2671172618865967
1684107931589660400,11.369660400390625,0.07414761930704117,0.30845722556114197,-0.28520649671554565
1684107931599677400,11.379677490234375,0.10960707813501358,0.31279924511909485,-0.312266081571579
1684107931609695500,11.389695556640625,0.09795503318309784,0.3072162866592407,-0.3320787847042084
1684107931619713500,11.399713623046875,0.03874816745519638,0.26918768882751465,-0.33149075508117676
1684107931629730600,11.40973046875,-0.004088094923645258,0.1828048676252365,-0.3250810205936432
1684107931639748600,11.41974853515625,0.0066881198436021805,0.0995776355266571,-0.3479897975921631
1684107931649766400,11.429766357421874,0.032732270658016205,0.07211741805076599,-0.40523195266723633
1684107931659784400,11.439784423828126,0.06091996654868126,0.08318152278661728,-0.46735551953315735
1684107931669806000,11.44980615234375,0.07293210923671722,0.08700519800186157,-0.49920907616615295
1684107931679824100,11.45982421875,0.05562076345086098,0.013230845332145691,-0.4704650342464447
1684107931689842000,11.469842041015625,0.01547412108629942,-0.17114165425300598,-0.3534133732318878
1684107931699859200,11.479859130859374,-0.008673292584717274,-0.16002480685710907,-0.23474878072738647
1684107931709877000,11.489876953125,-0.02767939493060112,0.07637012749910355,-0.21673427522182465
1684107931719895000,11.49989501953125,-0.019051285460591316,0.2676694989204407,-0.29857614636421204
1684107931729912000,11.509912109375,0.017875470221042633,0.24548211693763733,-0.43742722272872925
1684107931739930000,11.51993017578125,0.02820933423936367,0.10991788655519485,-0.5768160223960876
1684107931749948000,11.529947998046875,-0.01016832422465086,0.0033348901197314262,-0.6804124116897583
1684107931759966200,11.53996630859375,-0.11199002712965012,-0.030807368457317352,-0.7173587083816528
1684107931769983000,11.54998291015625,-0.23875844478607178,0.021117711439728737,-0.6644247174263
1684107931780001300,11.560001220703125,-0.32842549681663513,0.10905902087688446,-0.5484879612922668
1684107931790019000,11.57001904296875,-0.341422438621521,0.07149911671876907,-0.4262154996395111
1684107931800035800,11.580035888671874,-0.24430759251117706,-0.031984131783246994,-0.37146303057670593
1684107931810054100,11.59005419921875,-0.08735084533691406,-0.10270366072654724,-0.40133118629455566
1684107931820072000,11.600072021484374,0.011235385201871395,-0.17012609541416168,-0.5341762900352478
1684107931830089200,11.610089111328126,0.0069363838993012905,-0.2760082483291626,-0.746232807636261
1684107931840107000,11.62010693359375,-0.09186848998069763,-0.3806520998477936,-0.9528509378433228
1684107931850125000,11.630125,-0.21868829429149628,-0.3963696360588074,-1.066264271736145
1684107931860142000,11.64014208984375,-0.34000569581985474,-0.29640257358551025,-1.0825436115264893
1684107931870160100,11.65016015625,-0.4545948803424835,-0.14427852630615234,-1.0328289270401
1684107931880178000,11.660177978515625,-0.5371382236480713,0.0029873577877879143,-0.9157856106758118
1684107931890196000,11.670196044921875,-0.5440376400947571,0.11062069237232208,-0.7565988302230835
1684107931900213000,11.680212890625,-0.4866164028644562,0.15532851219177246,-0.5787079334259033
1684107931910231000,11.69023095703125,-0.40439632534980774,0.13391713798046112,-0.4026183485984802
1684107931920249000,11.7002490234375,-0.3524281978607178,0.09833969920873642,-0.22169198095798492
1684107931930266000,11.71026611328125,-0.31815120577812195,0.12180668115615845,-0.057081833481788635
1684107931940284000,11.720283935546876,-0.2951795756816864,0.25389227271080017,0.02310541272163391
1684107931950302200,11.73030224609375,-0.29751959443092346,0.34376800060272217,0.027861321344971657
1684107931960319000,11.740319091796875,-0.2788015604019165,0.3181380033493042,-0.011258118785917759
1684107931970337300,11.750337158203125,-0.2277315855026245,0.17884467542171478,-0.03736604377627373
1684107931980355000,11.76035498046875,-0.19725731015205383,0.03485100716352463,-0.034214723855257034
1684107931990373000,11.770373046875,-0.196415975689888,0.039657220244407654,-0.04212658479809761
1684107932000390100,11.78039013671875,-0.21994580328464508,0.10144255310297012,-0.04978583753108978
1684107932010408200,11.790408203125,-0.26896557211875916,0.10854564607143402,-0.047760140150785446
1684107932020426000,11.800426025390625,-0.30224230885505676,0.03675747662782669,-0.022497128695249557
1684107932030443000,11.810443115234374,-0.28609561920166016,-0.12552738189697266,0.04379292577505112
1684107932040461000,11.8204609375,-0.18959303200244904,-0.2745877206325531,0.15884654223918915
1684107932050478800,11.830478759765626,-0.07831574976444244,-0.30755695700645447,0.28406578302383423
1684107932060496100,11.84049609375,-0.040650658309459686,-0.23272503912448883,0.3658541142940521
1684107932070514000,11.850513916015625,-0.06568807363510132,-0.07711325585842133,0.400785893201828
1684107932080532000,11.860531982421875,-0.11466547101736069,0.11478480696678162,0.40123385190963745
1684107932090549000,11.870549072265625,-0.1616532951593399,0.21548540890216827,0.4073179364204407
1684107932100567000,11.880567138671875,-0.1624666303396225,0.17530283331871033,0.45521408319473267
1684107932110585000,11.890585205078125,-0.10978278517723083,0.018290849402546883,0.5428962111473083
1684107932120603100,11.90060302734375,-0.04879054054617882,-0.17240798473358154,0.61988365650177
1684107932130620000,11.910619873046874,-0.03303620591759682,-0.20489314198493958,0.6269686222076416
1684107932140638200,11.92063818359375,-0.05596176162362099,-0.1506996750831604,0.5612452626228333
1684107932150656000,11.930656005859374,-0.09183507412672043,-0.050598643720149994,0.4209133982658386
1684107932160673000,11.940673095703126,-0.12994596362113953,0.06813120096921921,0.283851683139801
1684107932170691000,11.950691162109376,-0.16763244569301605,0.13214312493801117,0.22274132072925568
1684107932180709000,11.960709228515626,-0.18597523868083954,0.17829357087612152,0.23014119267463684
1684107932190726100,11.97072607421875,-0.1977633535861969,0.263746052980423,0.2612091600894928
1684107932200744200,11.980744140625,-0.20869243144989014,0.31723353266716003,0.3041430413722992
1684107932210762000,11.990761962890625,-0.21640342473983765,0.25108975172042847,0.35313087701797485
1684107932220779000,12.000779052734375,-0.16009193658828735,0.08762145787477493,0.4130144417285919
1684107932230797000,12.010797119140625,-0.05311177298426628,-0.005551185458898544,0.4283847510814667
1684107932240815000,12.020815185546875,0.030742913484573364,-0.022748015820980072,0.39809420704841614
1684107932250833200,12.030833251953124,0.12105142325162888,0.08096656948328018,0.31734758615493774
1684107932260850000,12.040849853515626,0.23446081578731537,0.1779479831457138,0.21816585958003998
1684107932270868000,12.050867919921876,0.3643316328525543,0.13856346905231476,0.1491713523864746
1684107932280886000,12.060885986328126,0.4552181363105774,-0.10681087523698807,0.15771104395389557
1684107932290903000,12.070903076171875,0.39629697799682617,-0.41582411527633667,0.24434009194374084
1684107932300921000,12.080921142578125,0.19230441749095917,-0.5594720840454102,0.3490627706050873
1684107932310939100,12.090939208984375,-0.04554259404540062,-0.4687260389328003,0.3646492063999176
1684107932320956000,12.100955810546875,-0.17467474937438965,-0.3151934742927551,0.24046175181865692
1684107932330974200,12.11097412109375,-0.18369795382022858,-0.30145350098609924,0.0026766653172671795
1684107932340992000,12.120991943359375,-0.127776101231575,-0.462120920419693,-0.26818493008613586
1684107932351010000,12.131010009765625,-0.08143603056669235,-0.6873917579650879,-0.5099074244499207
1684107932361027000,12.141027099609374,-0.09228362143039703,-0.8877296447753906,-0.6480079889297485
1684107932371045000,12.151045166015624,-0.14999565482139587,-1.0243669748306274,-0.6379364728927612
1684107932381063000,12.16106298828125,-0.20667997002601624,-1.0778999328613281,-0.5028154253959656
1684107932391080200,12.171080078125,-0.22587881982326508,-0.9977791905403137,-0.3353238105773926
1684107932401098000,12.181097900390625,-0.21766802668571472,-0.77629554271698,-0.22022835910320282
1684107932411116000,12.191115966796875,-0.17729049921035767,-0.4996618330478668,-0.18454332649707794
1684107932421133000,12.201133056640625,-0.08211818337440491,-0.2773211896419525,-0.21237656474113464
1684107932431151000,12.211151123046875,0.083509661257267,-0.11493094265460968,-0.2745414078235626
1684107932441169000,12.2211689453125,0.24111047387123108,-0.0003886469639837742,-0.32605093717575073
1684107932451187200,12.231187255859375,0.26569998264312744,0.05081586539745331,-0.3063473105430603
1684107932461204000,12.241203857421874,0.20055986940860748,0.011601350270211697,-0.18367652595043182
1684107932471222300,12.25122216796875,0.08110683411359787,-0.09111233800649643,0.06282688677310944
1684107932481240000,12.261239990234374,0.17818064987659454,-0.15020468831062317,0.37864795327186584
1684107932491256800,12.2712568359375,0.15106306970119476,-0.13805215060710907,0.7191788554191589
1684107932501275100,12.281275146484376,0.10164199769496918,0.0015094773843884468,0.9859541058540344
1684107932511293000,12.29129296875,0.042412661015987396,0.21598315238952637,1.110934853553772
1684107932521310200,12.301310302734375,0.010028892196714878,0.3928484618663788,1.065016269683838
1684107932531328000,12.311327880859375,-0.14440497756004333,0.4412318170070648,0.8648115992546082
1684107932541346000,12.321345947265625,-0.16569800674915314,0.41638240218162537,0.5954185128211975
1684107932551363800,12.33136376953125,-0.3506892919540405,0.3452291190624237,0.3570185899734497
1684107932561381000,12.341381103515625,-0.23695604503154755,0.276733934879303,0.2250184714794159
1684107932571399000,12.35139892578125,-0.24904197454452515,0.18387199938297272,0.2057083249092102
1684107932581417000,12.3614169921875,0.014529474079608917,0.09969374537467957,0.2579007148742676
1684107932591434000,12.37143408203125,0.0408482626080513,0.014746716246008873,0.3529171943664551
1684107932601452000,12.3814521484375,0.231072798371315,-0.04527827352285385,0.4524669647216797
1684107932611470000,12.391469970703126,0.12876400351524353,-0.12654036283493042,0.5093390345573425
1684107932621487000,12.401487060546875,0.2460501492023468,-0.19075298309326172,0.4954398572444916
1684107932631505000,12.4115048828125,0.2636714279651642,-0.24578125774860382,0.4309839606285095
1684107932641523200,12.421523193359375,0.34303656220436096,-0.28688183426856995,0.3481900095939636
1684107932651541000,12.431541015625,0.43304258584976196,-0.3109230697154999,0.2850273847579956
1684107932661558300,12.441558349609375,0.4965935945510864,-0.26713111996650696,0.2593025863170624
1684107932671571700,12.45157177734375,0.4714931547641754,-0.1685175597667694,0.3088018596172333
1684107932681589500,12.461589599609376,0.3407449722290039,-0.06847164779901505,0.4513949453830719
1684107932691606800,12.471606689453125,0.18555673956871033,0.014909793622791767,0.6423742175102234
1684107932701624600,12.48162451171875,0.10667124390602112,0.14071644842624664,0.7620489597320557
1684107932711642600,12.491642578125,0.16501915454864502,0.27215129137039185,0.725562572479248
