time,seconds_elapsed,z,y,x
1684099777143550200,0.02155029296875,-0.7408888339996338,0.39466455578804016,4.362433433532715
1684099777153568300,0.031568359375,-0.49169090390205383,0.7676829099655151,4.600751876831055
1684099777163587300,0.04158740234375,-0.1243579089641571,1.600856900215149,4.089041233062744
1684099777173605000,0.051605224609375,-0.01715449057519436,2.2144696712493896,3.7114336490631104
1684099777183624200,0.061624267578125,-0.12992072105407715,2.572777271270752,3.469003438949585
1684099777193642500,0.071642578125,-0.3602331578731537,2.651360511779785,3.136890172958374
1684099777203660300,0.081660400390625,-0.5590000152587891,2.3636233806610107,2.6913790702819824
1684099777213679400,0.091679443359375,-0.8954102993011475,2.1972434520721436,2.423956871032715
1684099777223697200,0.101697265625,-1.1000031232833862,2.099491596221924,2.1268150806427
1684099777233716200,0.11171630859375,-1.0414139032363892,2.0657973289489746,1.7205727100372314
1684099777243734300,0.121734375,-0.9596761465072632,2.226783037185669,1.341628074645996
1684099777253753000,0.131753173828125,-0.8129549622535706,2.602915048599243,0.8786871433258057
1684099777263771400,0.141771484375,-0.5940085053443909,2.9611692428588867,0.26979586482048035
1684099777273790500,0.15179052734375,-0.5105296969413757,3.1390116214752197,-0.30030035972595215
1684099777283808300,0.161808349609375,-0.6239880919456482,2.939669609069824,-0.7990254759788513
1684099777293826300,0.171826416015625,-0.8623074889183044,2.3224639892578125,-1.2259807586669922
1684099777303845000,0.18184521484375,-1.1970791816711426,1.38416588306427,-1.5367753505706787
1684099777313863200,0.19186328125,-1.5070500373840332,0.25987905263900757,-1.7246177196502686
1684099777323882200,0.20188232421875,-1.711796760559082,-0.9923563003540039,-1.7764308452606201
1684099777333900300,0.211900390625,-1.7049405574798584,-1.6312743425369263,-1.739868402481079
1684099777343919400,0.22191943359375,-1.2883840799331665,-1.4223772287368774,-2.043142795562744
1684099777353937200,0.231937255859375,-0.7409343719482422,-0.9741804003715515,-2.5708065032958984
1684099777363956200,0.241956298828125,-0.3752591609954834,-0.9290651082992554,-2.917301654815674
1684099777373974300,0.251974365234375,-0.4130629897117615,-1.291561484336853,-3.002547264099121
1684099777383992300,0.261992431640625,-0.5948585867881775,-1.6643412113189697,-3.0875003337860107
1684099777394011100,0.27201123046875,-0.5896586179733276,-1.8021122217178345,-3.175943613052368
1684099777404029400,0.282029541015625,-0.40198561549186707,-1.5769014358520508,-3.1425015926361084
1684099777414048300,0.29204833984375,-0.20926420390605927,-0.8739580512046814,-2.942502021789551
1684099777424066300,0.30206640625,-0.22740432620048523,0.28201207518577576,-2.57958722114563
1684099777434085400,0.31208544921875,-0.5662270188331604,1.779062032699585,-2.026653528213501
1684099777444103200,0.322103271484375,-1.1091078519821167,3.652348518371582,-1.2705111503601074
1684099777454122200,0.332122314453125,-1.69683039188385,5.730156898498535,-0.3684322237968445
1684099777464140300,0.342140380859375,-2.2833166122436523,7.687267780303955,0.5443052649497986
1684099777474158300,0.352158447265625,-2.6980745792388916,9.121283531188965,1.3279566764831543
1684099777484177400,0.362177490234375,-2.990313768386841,9.790802955627441,1.8414589166641235
1684099777494195200,0.3721953125,-3.2182352542877197,9.802751541137695,2.0390419960021973
1684099777504214300,0.38221435546875,-3.3742706775665283,9.391013145446777,2.0837156772613525
1684099777514232000,0.392232177734375,-3.4290523529052734,8.812512397766113,2.1880671977996826
1684099777524251100,0.402251220703125,-3.347429037094116,7.902924537658691,2.391671657562256
1684099777534269400,0.41226953125,-3.0618515014648438,6.245206832885742,2.508110761642456
1684099777544288300,0.422288330078125,-2.5556323528289795,3.779428720474243,2.2684788703918457
1684099777554306300,0.432306396484375,-2.019050359725952,1.199985146522522,1.7746092081069946
1684099777564324400,0.442324462890625,-1.6705044507980347,-0.8068832755088806,1.3671815395355225
1684099777574343200,0.45234326171875,-1.57492196559906,-1.8622219562530518,1.2028372287750244
1684099777584361200,0.462361328125,-1.5685551166534424,-1.9270193576812744,1.2939831018447876
1684099777594380300,0.47238037109375,-1.5496985912322998,-1.027849555015564,1.7145137786865234
1684099777604398300,0.4823984375,-1.494925618171692,0.34054580330848694,2.2687225341796875
1684099777614417400,0.49241748046875,-1.4398396015167236,1.7194128036499023,2.791888475418091
1684099777624435200,0.502435302734375,-1.4450711011886597,2.8551015853881836,3.2178401947021484
1684099777634454300,0.512454345703125,-1.5133777856826782,3.605146884918213,3.5030393600463867
1684099777644472300,0.522472412109375,-1.2169467210769653,4.4714674949646,3.4032764434814453
1684099777654491100,0.5324912109375,-0.5152439475059509,5.656260013580322,2.953608989715576
1684099777664509200,0.54250927734375,0.2382919043302536,6.247968673706055,2.0456128120422363
1684099777674527200,0.55252734375,0.3051045835018158,4.724157333374023,0.3984591066837311
1684099777684546300,0.56254638671875,-0.2178632915019989,2.3197736740112305,-1.028456211090088
1684099777694564600,0.572564697265625,-0.4909266531467438,0.7385213375091553,-1.273390293121338
1684099777704583700,0.582583740234375,-0.18342000246047974,0.3062756359577179,-0.6331719160079956
1684099777714601500,0.5926015625,0.36517882347106934,0.8087751269340515,0.5417513251304626
1684099777724620500,0.60262060546875,0.7343469858169556,1.420379400253296,1.4179617166519165
1684099777734638600,0.612638671875,0.9202897548675537,1.77623450756073,1.637799620628357
1684099777744657400,0.622657470703125,1.039147138595581,1.6298152208328247,1.7851603031158447
1684099777754675700,0.63267578125,1.193697214126587,1.2463937997817993,2.4522757530212402
1684099777764693800,0.64269384765625,1.0529686212539673,1.5723655223846436,1.8385024070739746
1684099777774712600,0.652712646484375,0.8874910473823547,0.9050629138946533,1.3251200914382935
1684099777784730600,0.662730712890625,0.5917888283729553,0.31344783306121826,0.9226944446563721
1684099777794749700,0.672749755859375,-0.15171073377132416,0.024064574390649796,0.46424153447151184
1684099777804767500,0.682767578125,-0.6162874698638916,-0.22034862637519836,0.4109085202217102
1684099777814786600,0.69278662109375,-0.4879443645477295,-0.14274299144744873,0.3937068283557892
1684099777824804600,0.7028046875,-0.03426210209727287,0.03826913982629776,0.5026751160621643
1684099777834823700,0.71282373046875,0.41298651695251465,0.18868021667003632,0.7718600034713745
1684099777844841700,0.722841796875,0.8479297161102295,0.1885281503200531,0.947116494178772
1684099777854859500,0.732859619140625,1.2037408351898193,-0.17007867991924286,0.9280385971069336
1684099777864878600,0.742878662109375,1.428100347518921,-0.8029797077178955,0.658652663230896
1684099777874896600,0.752896728515625,1.4385919570922852,-1.465375304222107,0.19632266461849213
1684099777884915700,0.762915771484375,1.3098249435424805,-2.0638210773468018,-0.32685479521751404
1684099777894933800,0.772933837890625,1.166422963142395,-2.535266637802124,-0.8169198036193848
1684099777904952600,0.78295263671875,1.0868333578109741,-2.9248414039611816,-1.2449147701263428
1684099777914970600,0.792970703125,1.1208773851394653,-3.1279139518737793,-1.5962485074996948
1684099777924989700,0.80298974609375,1.189204454421997,-3.0947206020355225,-1.8698515892028809
1684099777935007500,0.813007568359375,1.1586549282073975,-2.8544251918792725,-1.9888001680374146
1684099777945026600,0.823026611328125,1.07858407497406,-2.444077491760254,-1.9122308492660522
1684099777955044900,0.833044921875,1.059320330619812,-1.2590949535369873,-1.2515171766281128
1684099777965062700,0.843062744140625,0.9820767045021057,0.008924279361963272,-0.23801402747631073
1684099777975081700,0.853081787109375,0.15922552347183228,0.8231895565986633,0.33471664786338806
1684099777985099500,0.863099609375,-0.9738336801528931,0.46370700001716614,0.04787449911236763
1684099777995118600,0.87311865234375,-1.6583293676376343,0.4373316168785095,-0.2080065757036209
1684099778005136600,0.88313671875,-1.8889689445495605,0.8642213940620422,0.08325376361608505
1684099778015155500,0.893155517578125,-1.8376058340072632,1.1618874073028564,0.5104206800460815
1684099778025173800,0.903173828125,-2.081073522567749,1.0727612972259521,0.8492940664291382
1684099778035192800,0.91319287109375,-2.438953399658203,0.6984431147575378,0.8834546804428101
1684099778045210600,0.923210693359375,-2.7345211505889893,0.7386203408241272,0.7587679028511047
1684099778055228700,0.933228759765625,-2.855421543121338,1.2627131938934326,0.433107852935791
1684099778065247500,0.94324755859375,-2.899142026901245,2.011806011199951,-0.22779817879199982
1684099778075265500,0.953265625,-2.8239266872406006,3.0283191204071045,-0.9634675979614258
1684099778085284600,0.96328466796875,-2.8160104751586914,3.7283856868743896,-1.299750566482544
1684099778095302700,0.973302734375,-3.2931764125823975,3.3128514289855957,-1.3958430290222168
1684099778105321700,0.98332177734375,-3.8006560802459717,2.2331788539886475,-1.61319899559021
1684099778115339500,0.993339599609375,-3.9804892539978027,1.317029595375061,-1.7522131204605103
1684099778125358600,1.003358642578125,-3.782259464263916,0.9159109592437744,-1.6712791919708252
1684099778135376600,1.013376708984375,-3.340482473373413,0.8311147689819336,-1.460411548614502
1684099778145395500,1.0233955078125,-2.9547078609466553,1.1004083156585693,-0.9853020310401917
1684099778155413500,1.03341357421875,-2.712456703186035,1.5454124212265015,-0.3296511471271515
1684099778165431800,1.043431884765625,-2.505002021789551,2.137357473373413,0.42648500204086304
1684099778175450600,1.05345068359375,-2.2070584297180176,2.5883946418762207,1.2057719230651855
1684099778185468700,1.06346875,-1.885732889175415,2.554979085922241,1.8314703702926636
1684099778195487700,1.07348779296875,-1.5894207954406738,2.11961030960083,2.319157838821411
1684099778205505500,1.083505615234375,-1.220815896987915,1.4672901630401611,2.707828998565674
1684099778215524600,1.093524658203125,-0.6770632863044739,0.5818281769752502,2.9390041828155518
1684099778225542700,1.103542724609375,0.09966471046209335,-0.3865908980369568,3.0594115257263184
1684099778235561700,1.113561767578125,1.001939296722412,-1.2167242765426636,3.040621757507324
1684099778245579800,1.123579833984375,1.8839174509048462,-1.6218565702438354,2.8598597049713135
1684099778255598600,1.1335986328125,2.654585599899292,-1.471453070640564,2.500351667404175
1684099778265616600,1.14361669921875,3.167524814605713,-0.18327592313289642,1.7885500192642212
1684099778275634400,1.153634521484375,3.223118305206299,1.5275893211364746,0.935968279838562
1684099778285653500,1.163653564453125,3.1570851802825928,1.7961959838867188,0.629116952419281
1684099778295671800,1.173671875,2.7136456966400146,1.4891268014907837,0.33400699496269226
1684099778305690600,1.183690673828125,1.7450743913650513,1.8318287134170532,0.284454345703125
1684099778315708700,1.193708740234375,0.833726167678833,1.7731438875198364,0.4325004518032074
1684099778325727700,1.203727783203125,0.043575625866651535,1.1813031435012817,0.6959014534950256
1684099778335745500,1.21374560546875,-0.5078131556510925,0.5002477765083313,0.9223789572715759
1684099778345764600,1.2237646484375,-0.8960131406784058,0.37564918398857117,1.0719794034957886
1684099778355782700,1.23378271484375,-0.7255920767784119,1.0021077394485474,1.1869391202926636
1684099778365800700,1.24380078125,0.7419888973236084,2.0271730422973633,1.3972800970077515
1684099778375819800,1.25381982421875,1.8618545532226562,2.47863507270813,1.5663630962371826
1684099778385837600,1.263837646484375,1.9061356782913208,2.424428701400757,1.8970041275024414
1684099778395856600,1.273856689453125,1.6916314363479614,1.2708961963653564,2.1153218746185303
1684099778405874700,1.283874755859375,1.2314717769622803,-0.2641051411628723,1.908043622970581
1684099778415893500,1.2938935546875,0.6355580687522888,0.3580760359764099,1.9256752729415894
1684099778425911600,1.30391162109375,0.05992433801293373,0.8768054842948914,1.1086180210113525
1684099778435930600,1.3139306640625,-0.2840059697628021,1.0498826503753662,-0.036263272166252136
1684099778445948700,1.32394873046875,-0.5479097962379456,1.306020975112915,-0.3768107295036316
1684099778455967700,1.3339677734375,-0.6142235398292542,0.59798663854599,-0.3381636142730713
1684099778465985500,1.343985595703125,-0.5176445245742798,-0.2890840768814087,-0.5198479294776917
1684099778476003600,1.354003662109375,-0.458486407995224,-0.6132868528366089,-0.7442100644111633
1684099778486022700,1.364022705078125,-0.30743536353111267,-0.7625964283943176,-0.8979021310806274
1684099778496040700,1.374040771484375,-0.06785586476325989,-0.9335806369781494,-1.04404616355896
1684099778506059500,1.3840595703125,0.20791073143482208,-1.0478571653366089,-1.070635437965393
1684099778516077600,1.39407763671875,0.43367260694503784,-0.9108865261077881,-0.7054210305213928
1684099778526096600,1.4040966796875,0.4562024176120758,-0.4064792990684509,-0.18937921524047852
1684099778536114700,1.41411474609375,0.13532498478889465,0.7400994896888733,-0.21525408327579498
1684099778546133500,1.424133544921875,-0.39574477076530457,2.0619115829467773,-0.7148045301437378
1684099778556151600,1.434151611328125,-0.9604297280311584,2.7279903888702393,-1.1612634658813477
1684099778566169900,1.444169921875,-1.5557866096496582,3.0455474853515625,-1.476316213607788
1684099778576188700,1.454188720703125,-2.192627191543579,3.2519521713256836,-1.7800594568252563
1684099778586206700,1.464206787109375,-2.541769027709961,2.661634922027588,-1.527388095855713
1684099778596225800,1.474225830078125,-2.240250587463379,1.5269689559936523,-0.5209816694259644
1684099778606243600,1.48424365234375,-1.60792875289917,1.3403370380401611,0.6050739288330078
1684099778616262700,1.4942626953125,-0.8568531274795532,1.6975030899047852,1.6314904689788818
1684099778626280400,1.504280517578125,-0.2337045967578888,1.2833997011184692,2.0965921878814697
1684099778636299500,1.514299560546875,-0.07863341271877289,0.5910071730613708,1.939899206161499
1684099778646317800,1.52431787109375,-0.3507762551307678,0.15178826451301575,1.4928921461105347
1684099778656335600,1.534335693359375,-0.7315112948417664,0.6608000993728638,1.2303990125656128
1684099778666354700,1.544354736328125,-1.0040701627731323,1.1592583656311035,0.8811507225036621
1684099778676372500,1.55437255859375,-1.7452542781829834,1.6735785007476807,0.5669702887535095
1684099778686391600,1.5643916015625,-2.6822521686553955,2.2012779712677,0.08024752140045166
1684099778696409000,1.5744091796875,-3.3881235122680664,2.515242576599121,-0.4343414008617401
1684099778706428000,1.584427978515625,-3.902549982070923,2.543814182281494,-0.7083503007888794
1684099778716446000,1.594446044921875,-4.228697776794434,2.5012316703796387,-0.7620435357093811
1684099778726465000,1.604465087890625,-4.443628311157227,2.468404531478882,-0.6180053949356079
1684099778736482800,1.61448291015625,-4.619624137878418,2.231126070022583,-0.4109259247779846
1684099778746502000,1.624501953125,-4.774906635284424,1.8955821990966797,-0.2150712013244629
1684099778756519700,1.634519775390625,-4.77852725982666,1.723888635635376,-0.11741448193788528
1684099778766538000,1.6445380859375,-4.564723968505859,1.3411271572113037,-0.07741406559944153
1684099778776557000,1.65455712890625,-4.070162296295166,0.9793044328689575,-0.07516925781965256
1684099778786574800,1.664574951171875,-3.3772799968719482,0.7767971158027649,-0.08556943386793137
1684099778796594000,1.674593994140625,-2.6817467212677,0.5089100003242493,-0.11695768684148788
1684099778806611700,1.68461181640625,-2.227421522140503,0.1674003303050995,-0.22109846770763397
1684099778816630800,1.694630859375,-2.1702916622161865,-0.2239290326833725,-0.2669677734375
1684099778826648800,1.70464892578125,-2.330568552017212,-0.4608185291290283,-0.19267089664936066
1684099778836668000,1.71466796875,-2.4663217067718506,-0.35479989647865295,-0.24826683104038239
1684099778846686000,1.72468603515625,-2.184645652770996,0.4157559275627136,-0.1485157459974289
1684099778856705000,1.734705078125,-1.9144830703735352,1.2433044910430908,0.10068652778863907
1684099778866722800,1.744722900390625,-1.8032872676849365,1.5440560579299927,0.35008513927459717
1684099778876740900,1.754740966796875,-1.7941316366195679,1.1749160289764404,0.7163746356964111
1684099778886760000,1.764760009765625,-1.9079734086990356,0.5525150895118713,1.1929843425750732
1684099778896778000,1.774778076171875,-2.049635887145996,0.026920069009065628,1.6369774341583252
1684099778906797000,1.784797119140625,-2.165236711502075,-0.6410760879516602,1.771331787109375
1684099778916814800,1.79481494140625,-2.323957920074463,-0.996311366558075,1.6146631240844727
1684099778926834000,1.804833984375,-2.52236270904541,-0.7892426252365112,1.318763256072998
1684099778936852000,1.81485205078125,-2.728445529937744,-0.3442136347293854,1.1006678342819214
1684099778946870800,1.824870849609375,-2.969899892807007,0.3971446454524994,1.1418650150299072
1684099778956888800,1.834888916015625,-3.11181902885437,1.0541512966156006,1.2962119579315186
1684099778966907000,1.844906982421875,-3.0710113048553467,1.280216097831726,1.5694650411605835
1684099778976926000,1.854926025390625,-2.9003796577453613,1.0385818481445312,1.7633405923843384
1684099778986944000,1.864944091796875,-2.722907543182373,0.43865853548049927,1.9182872772216797
1684099778996962800,1.874962890625,-2.516127824783325,-0.13076616823673248,2.0399882793426514
1684099779006980900,1.88498095703125,-2.2534866333007812,-0.45764708518981934,2.04866361618042
1684099779017000000,1.895,-2.005662202835083,-0.5306676030158997,1.9856690168380737
1684099779027017700,1.905017822265625,-1.798969030380249,-0.522861897945404,1.8701374530792236
1684099779037036800,1.915036865234375,-1.7265998125076294,-0.457835853099823,1.6378716230392456
1684099779047054800,1.925054931640625,-1.7086676359176636,-0.4992176592350006,1.3027796745300293
1684099779057074000,1.935073974609375,-1.650251030921936,-0.5296100378036499,0.886039137840271
1684099779067092000,1.945092041015625,-1.6261768341064453,-0.31150856614112854,0.4799453914165497
1684099779077109800,1.95510986328125,-1.5658621788024902,0.22410184144973755,0.250718355178833
1684099779087128800,1.96512890625,-1.4156244993209839,0.5563072562217712,0.3262663781642914
1684099779097147000,1.97514697265625,-1.21743905544281,0.6130849719047546,0.5890828967094421
1684099779107165700,1.985165771484375,-0.933904767036438,0.3366573452949524,0.870415210723877
1684099779117184000,1.99518408203125,-0.7035817503929138,-0.4853658080101013,0.9814168214797974
1684099779127203000,2.005203125,-0.6145102381706238,-1.332460641860962,0.8333796858787537
1684099779137220900,2.015220947265625,-0.5939674973487854,-1.7182568311691284,0.5828841924667358
1684099779147240000,2.025239990234375,-0.4398317039012909,-1.6470391750335693,0.4925559163093567
1684099779157257700,2.0352578125,-0.1642826348543167,-1.2204433679580688,0.4730641543865204
1684099779167276800,2.04527685546875,0.15786157548427582,-0.8877631425857544,0.4011590778827667
1684099779177294800,2.055294921875,0.5345053672790527,-0.9874809980392456,0.26754438877105713
1684099779187313000,2.06531298828125,0.9424188137054443,-1.359547734260559,0.09392492473125458
1684099779197332000,2.07533203125,1.2381361722946167,-1.967454195022583,-0.10095526278018951
1684099779207349800,2.085349853515625,1.5689246654510498,-2.4944629669189453,-0.21043381094932556
1684099779217368800,2.095368896484375,2.052299737930298,-2.847182035446167,-0.30181729793548584
1684099779227387000,2.105386962890625,2.5145277976989746,-3.2308402061462402,-0.4854326844215393
1684099779237405700,2.11540576171875,2.8134725093841553,-3.61191463470459,-0.7095094919204712
1684099779247424000,2.125424072265625,2.841343402862549,-3.6763997077941895,-0.8401761651039124
1684099779257443000,2.135443115234375,2.5863120555877686,-2.7481913566589355,-0.8033018708229065
1684099779267460900,2.1454609375,2.4134082794189453,-1.3843004703521729,-0.71009361743927
1684099779277480000,2.15547998046875,2.563657760620117,-0.04880301281809807,-0.6607525944709778
1684099779287498000,2.165498046875,2.760266065597534,0.5629035234451294,-0.7117292284965515
1684099779297515800,2.175515869140625,2.699770927429199,0.9641242027282715,-0.6580901145935059
1684099779307534800,2.185534912109375,2.5157485008239746,1.1655445098876953,-0.6648271083831787
1684099779317553000,2.195552978515625,2.5663645267486572,1.0967527627944946,-0.79001784324646
1684099779327572000,2.205572021484375,2.965872287750244,1.174351692199707,-0.8609774708747864
1684099779337590000,2.215590087890625,3.462045192718506,1.5683256387710571,-0.805927574634552
1684099779347608800,2.22560888671875,3.9348795413970947,2.0453033447265625,-0.7364276051521301
1684099779357627000,2.235626953125,4.371413230895996,2.340001344680786,-0.5980812311172485
1684099779367646000,2.24564599609375,4.541104316711426,1.8890234231948853,-0.013626271858811378
1684099779377663700,2.255663818359375,4.340625762939453,1.2947758436203003,0.3704625368118286
1684099779387682000,2.26568212890625,3.87642765045166,0.6619288325309753,0.7473632097244263
1684099779397700900,2.275700927734375,3.250917434692383,-0.1245897114276886,1.1659621000289917
1684099779407719000,2.285718994140625,2.6180851459503174,-1.4027947187423706,1.7307226657867432
1684099779417738000,2.295738037109375,1.9105454683303833,-2.9288578033447266,2.2504732608795166
1684099779427755800,2.305755859375,1.1835440397262573,-3.671813726425171,2.5361337661743164
1684099779437774800,2.31577490234375,0.523116946220398,-3.815260410308838,2.5073790550231934
1684099779447793000,2.32579296875,0.019243421033024788,-2.8576672077178955,1.241725206375122
1684099779457811700,2.335811767578125,-0.22610481083393097,-1.045536994934082,-0.25965437293052673
1684099779467830000,2.345830078125,-0.352425754070282,-0.17656007409095764,-0.8994585871696472
1684099779477848800,2.355848876953125,-0.4414014220237732,0.10063405334949493,-1.1189392805099487
1684099779487867000,2.365866943359375,-0.5056379437446594,-0.013546044006943703,-1.2046914100646973
1684099779497885000,2.375885009765625,-0.5907416939735413,-0.3592420816421509,-1.313909888267517
1684099779507903700,2.38590380859375,-0.7153209447860718,-0.7915178537368774,-1.4740492105484009
1684099779517922000,2.395922119140625,-0.9673318266868591,-1.154782772064209,-1.6313629150390625
1684099779527940900,2.40594091796875,-1.282218098640442,-1.36129629611969,-1.7120026350021362
1684099779537959000,2.415958984375,-1.563399076461792,-1.4747395515441895,-1.6890767812728882
1684099779547978000,2.42597802734375,-1.7215383052825928,-1.7245033979415894,-1.659636378288269
1684099779557995800,2.435995849609375,-1.6670641899108887,-2.1562938690185547,-1.7274435758590698
1684099779568014800,2.446014892578125,-0.9648152589797974,-1.9202853441238403,-2.202677011489868
1684099779578033000,2.456032958984375,-0.4526795446872711,-2.438917636871338,-1.9255446195602417
1684099779588051700,2.4660517578125,0.03379209712147713,-2.97400164604187,-1.5067659616470337
1684099779598070000,2.476070068359375,0.29903939366340637,-3.4223363399505615,-1.037066102027893
1684099779608087800,2.486087890625,0.11835432052612305,-3.7427752017974854,-0.4076572358608246
1684099779618107000,2.49610693359375,-0.08826783299446106,-3.6358251571655273,0.0760255828499794
1684099779628125000,2.506125,-0.18947862088680267,-3.2233290672302246,0.45673805475234985
1684099779638143700,2.516143798828125,-0.11049354076385498,-2.9114465713500977,0.6860610246658325
1684099779648161800,2.526161865234375,-0.1058998554944992,-2.8551647663116455,0.694466233253479
1684099779658180900,2.536180908203125,-0.2130783051252365,-2.5761852264404297,0.7021586298942566
1684099779668199000,2.546198974609375,-0.26194971799850464,-2.047518014907837,0.7763766646385193
1684099779678218000,2.556218017578125,-0.3562676012516022,-1.2515259981155396,0.9668047428131104
1684099779688236000,2.566236083984375,-0.4201565682888031,0.0098421610891819,0.9315199851989746
1684099779698257000,2.5762568359375,-0.3539640009403229,1.010014295578003,0.5227423906326294
1684099779708275200,2.586275146484375,-0.24322468042373657,1.3476482629776,0.05519117787480354
1684099779718293000,2.59629296875,-0.13382543623447418,1.1828123331069946,-0.34095335006713867
1684099779728312000,2.60631201171875,-0.01642264798283577,0.7643405199050903,-0.6315662264823914
1684099779738330000,2.616330078125,0.07155881822109222,0.34470024704933167,-0.7675538063049316
1684099779748349000,2.626348876953125,0.11261942982673645,0.030346043407917023,-0.778283417224884
1684099779758367000,2.636366943359375,0.13608106970787048,-0.11439668387174606,-0.685937225818634
1684099779768386000,2.646385986328125,0.16273851692676544,-0.11296071112155914,-0.5364934206008911
1684099779778404000,2.656404052734375,0.1848822981119156,0.0014051776379346848,-0.37254467606544495
1684099779788423200,2.666423095703125,0.18895293772220612,0.17105598747730255,-0.20095638930797577
1684099779798441000,2.67644091796875,0.21266189217567444,0.3571765422821045,-0.028217695653438568
1684099779808459000,2.686458984375,0.1820208877325058,0.531814694404602,0.12950241565704346
1684099779818478000,2.69647802734375,0.06968797743320465,0.675478994846344,0.21435363590717316
1684099779828496000,2.706495849609375,-0.03232041746377945,0.5022744536399841,0.05058201029896736
1684099779838515000,2.716514892578125,-0.07193507999181747,0.09566409885883331,-0.3499792218208313
1684099779848533000,2.726532958984375,-0.053468190133571625,-0.12572981417179108,-0.7065399885177612
1684099779858552000,2.736552001953125,0.07337931543588638,-0.10066016018390656,-0.8156384229660034
1684099779868570000,2.746570068359375,0.08995509147644043,0.08518480509519577,-0.7378219366073608
1684099779878589000,2.7565888671875,0.05426134541630745,0.24342268705368042,-0.6118258237838745
1684099779888607000,2.76660693359375,0.023599309846758842,0.29792696237564087,-0.5208085775375366
1684099779898626000,2.7766259765625,0.028960980474948883,0.2966557741165161,-0.44569897651672363
1684099779908643800,2.786643798828125,0.08904482424259186,0.2944243252277374,-0.4142851233482361
1684099779918662100,2.796662109375,0.21408386528491974,0.32958564162254333,-0.45084989070892334
1684099779928681000,2.806680908203125,0.3891589939594269,0.3650355041027069,-0.5666558742523193
1684099779938699000,2.816698974609375,0.582496702671051,0.3604178726673126,-0.7480241656303406
1684099779948718000,2.826718017578125,0.7343243360519409,0.23010888695716858,-0.8937584161758423
1684099779958736000,2.83673583984375,0.7861643433570862,0.0010423464700579643,-0.9510104656219482
1684099779968755000,2.8467548828125,0.753677487373352,-0.1987900733947754,-0.9407634139060974
1684099779978773000,2.85677294921875,0.6822768449783325,-0.28395792841911316,-0.9147921800613403
1684099779988792000,2.8667919921875,0.6696524024009705,-0.28512996435165405,-0.9072958827018738
1684099779998810000,2.87681005859375,0.8044452667236328,-0.29509562253952026,-0.9594854116439819
1684099780008829200,2.8868291015625,1.084629774093628,-0.3511865735054016,-1.122457504272461
1684099780018847000,2.896846923828125,1.466439962387085,-0.45001915097236633,-1.3805564641952515
1684099780028865000,2.906864990234375,1.9362239837646484,-0.5548473000526428,-1.5923776626586914
1684099780038883800,2.9168837890625,2.4259941577911377,-0.6102240681648254,-1.651344895362854
1684099780048902100,2.926902099609375,2.8192801475524902,-0.6576927900314331,-1.5853283405303955
1684099780058921200,2.936921142578125,3.0523221492767334,-0.6406286954879761,-1.4591668844223022
1684099780068939000,2.94693896484375,3.165099620819092,-0.2050955593585968,-1.345748782157898
1684099780078958000,2.9569580078125,2.9997096061706543,0.6571543216705322,-1.475803256034851
1684099780088976000,2.966975830078125,2.555366039276123,1.5732101202011108,-1.7715139389038086
1684099780098995000,2.976994873046875,1.9741450548171997,2.2418949604034424,-1.8507026433944702
1684099780109013000,2.987012939453125,1.3928228616714478,2.442671775817871,-1.416533350944519
1684099780119031000,2.997031005859375,0.9141046404838562,2.2294416427612305,-0.651701033115387
1684099780129050000,3.007050048828125,0.5874207615852356,1.988996982574463,-0.12417305260896683
1684099780139068200,3.017068115234375,0.3643686771392822,1.798561453819275,0.083088718354702
1684099780149087000,3.0270869140625,0.22057101130485535,1.544236421585083,0.0833268091082573
1684099780159105000,3.03710498046875,0.13890135288238525,1.1335145235061646,-0.009986991062760353
1684099780169124000,3.0471240234375,0.12677732110023499,0.613821804523468,-0.15185916423797607
1684099780179142000,3.057141845703125,0.15772372484207153,0.09585390239953995,-0.33207806944847107
1684099780189161000,3.067160888671875,0.1976916491985321,-0.33412837982177734,-0.5146172642707825
1684099780199179000,3.077178955078125,0.20964312553405762,-0.5780100226402283,-0.6178877353668213
1684099780209198000,3.087197998046875,0.1966947615146637,-0.563234269618988,-0.595026969909668
1684099780219216100,3.097216064453125,0.2215983271598816,-0.3174118399620056,-0.481804758310318
1684099780229234000,3.10723388671875,0.29884999990463257,-0.14218729734420776,-0.3380124270915985
1684099780239253000,3.1172529296875,0.3746654689311981,-0.27961137890815735,-0.25987017154693604
1684099780249271000,3.12727099609375,0.40395358204841614,-0.7097557783126831,-0.31812363862991333
1684099780259289900,3.137289794921875,0.3715073764324188,-1.170822262763977,-0.5183574557304382
1684099780269308200,3.14730810546875,0.3621751368045807,-1.3570553064346313,-0.7846112251281738
1684099780279327000,3.157326904296875,0.45063525438308716,-1.0473432540893555,-1.0220386981964111
1684099780289345000,3.167344970703125,0.6587061285972595,-0.268669068813324,-1.2026129961013794
1684099780299364000,3.177364013671875,0.9444253444671631,0.5880250334739685,-1.2771869897842407
1684099780309382000,3.1873818359375,1.1825252771377563,1.0692754983901978,-1.192879557609558
1684099780319401000,3.19740087890625,1.1912330389022827,1.0639643669128418,-0.9552642107009888
1684099780329419000,3.2074189453125,0.9718956351280212,0.8461769819259644,-0.7465988993644714
1684099780339437000,3.21743701171875,0.6587267518043518,0.7711469531059265,-0.6569722294807434
1684099780349456100,3.2274560546875,0.42918089032173157,0.9299222230911255,-0.5975302457809448
1684099780359474000,3.237473876953125,0.3216846287250519,1.1190935373306274,-0.49367645382881165
1684099780369493000,3.247492919921875,0.27654269337654114,1.1992088556289673,-0.38533344864845276
1684099780379511000,3.257510986328125,0.22535641491413116,1.1452860832214355,-0.31362423300743103
1684099780389529900,3.26752978515625,0.1178928092122078,0.8725022077560425,-0.3442399203777313
1684099780399548200,3.277548095703125,0.05880046635866165,0.44402989745140076,-0.468584269285202
1684099780409567200,3.287567138671875,0.18384839594364166,0.01661011204123497,-0.6935931444168091
1684099780419585000,3.2975849609375,0.3639782965183258,-0.3575735092163086,-1.0040074586868286
1684099780429603000,3.30760302734375,0.44336313009262085,-0.548753023147583,-1.1386555433273315
1684099780439622000,3.317621826171875,0.40268200635910034,-0.27325907349586487,-0.9458949565887451
1684099780449640000,3.327639892578125,0.20495745539665222,0.41890421509742737,-0.6945279836654663
1684099780459659000,3.337658935546875,-0.07621076703071594,0.8935349583625793,-0.6185305714607239
1684099780469677000,3.347677001953125,-0.23552079498767853,0.9030941128730774,-0.6508057117462158
1684099780479696100,3.357696044921875,-0.2462591528892517,0.6822707056999207,-0.6139974594116211
1684099780489714000,3.3677138671875,-0.23644061386585236,0.4900674521923065,-0.5475150942802429
1684099780499733000,3.37773291015625,-0.21959450840950012,0.4379998445510864,-0.4532908499240875
1684099780509751000,3.3877509765625,-0.2199939787387848,0.4123117923736572,-0.28852054476737976
1684099780519769900,3.397769775390625,-0.21723288297653198,0.45138299465179443,-0.10146584361791611
1684099780529788000,3.407787841796875,-0.2384987473487854,0.47962021827697754,0.008958403021097183
1684099780539807000,3.417806884765625,-0.2618241012096405,0.4807244539260864,0.22114132344722748
1684099780549825000,3.427824951171875,-0.3555138409137726,-0.22915658354759216,0.4077567458152771
1684099780559843000,3.437843017578125,-0.3512199819087982,-0.10502460598945618,0.3321596384048462
1684099780569862100,3.447862060546875,-0.3072544038295746,0.6634798049926758,0.12001754343509674
1684099780579880000,3.4578798828125,-0.2987622916698456,0.5098088383674622,0.013096315786242485
1684099780589899000,3.46789892578125,-0.2543109357357025,0.014921627938747406,0.13979247212409973
1684099780599917000,3.4779169921875,-0.16646844148635864,0.29043862223625183,0.2143833339214325
1684099780609936000,3.487935791015625,-0.18186897039413452,0.565118670463562,0.15505662560462952
1684099780619954200,3.4979541015625,-0.25139716267585754,0.6614435911178589,0.10691812634468079
1684099780629973000,3.507972900390625,-0.31286051869392395,0.6906986832618713,0.04121820256114006
1684099780639991000,3.517990966796875,-0.3719346225261688,0.5656884908676147,-0.0650438517332077
1684099780650010000,3.528010009765625,-0.3577309250831604,0.47115394473075867,-0.12100991606712341
1684099780660028000,3.53802783203125,-0.36291342973709106,0.2653898298740387,-0.14685744047164917
1684099780670046200,3.548046142578125,-0.3808863162994385,0.05959991738200188,-0.1643615961074829
1684099780680065000,3.55806494140625,-0.36647963523864746,-0.015248306095600128,-0.16002047061920166
1684099780690083000,3.5680830078125,-0.40675088763237,-0.18821768462657928,-0.17513124644756317
1684099780700100600,3.5781005859375,-0.36748477816581726,-0.05707569420337677,-0.14977702498435974
1684099780710118700,3.58811865234375,-0.35473543405532837,0.12640917301177979,-0.06352867931127548
1684099780720137700,3.5981376953125,-0.38569018244743347,0.24352367222309113,-0.00891626812517643
1684099780730155800,3.60815576171875,-0.40088164806365967,0.3265346884727478,0.02139929309487343
1684099780740174800,3.6181748046875,-0.4357967674732208,0.40524354577064514,0.11798422038555145
1684099780750192600,3.628192626953125,-0.49608463048934937,0.47650521993637085,0.19424968957901
1684099780760210700,3.638210693359375,-0.5400561690330505,0.6171131730079651,0.20394496619701385
1684099780770229800,3.648229736328125,-0.5604000687599182,0.7102715969085693,0.2006511688232422
1684099780780247800,3.658247802734375,-0.5660377144813538,0.6563829183578491,0.16358143091201782
1684099780790267000,3.668266845703125,-0.5554825663566589,0.613881528377533,0.11892741173505783
1684099780800285000,3.678284912109375,-0.5280440449714661,0.6214451193809509,0.08084354549646378
1684099780810303700,3.6883037109375,-0.5003162622451782,0.5462499856948853,0.08041531592607498
1684099780820321800,3.69832177734375,-0.4843785762786865,0.37695416808128357,0.04783393442630768
1684099780830340900,3.7083408203125,-0.4716302752494812,0.23080334067344666,0.05117007717490196
1684099780840358700,3.718358642578125,-0.48341861367225647,0.16757507622241974,0.0826326236128807
1684099780850377700,3.728377685546875,-0.5245380997657776,0.060598015785217285,0.07278504967689514
1684099780860395800,3.738395751953125,-0.5273851752281189,-0.06088715046644211,-0.015625935047864914
1684099780870413800,3.748413818359375,-0.44785547256469727,-0.08131333440542221,-0.12724673748016357
1684099780880433000,3.758432861328125,-0.3256361484527588,-0.0887797623872757,-0.15162551403045654
1684099780890450700,3.76845068359375,-0.21881303191184998,-0.0587259903550148,-0.10900747030973434
1684099780900469800,3.7784697265625,-0.13155780732631683,0.07301487773656845,-0.17228007316589355
1684099780910487600,3.788487548828125,-0.09815458208322525,0.10260392725467682,-0.2385517656803131
1684099780920506600,3.798506591796875,-0.08868670463562012,-0.007399220950901508,-0.22039633989334106
1684099780930525000,3.80852490234375,-0.0841984823346138,0.03661404550075531,-0.1580333560705185
1684099780940543700,3.818543701171875,-0.03272213414311409,0.10909174382686615,-0.1257246434688568
1684099780950561800,3.828561767578125,0.05416136607527733,0.22641970217227936,-0.1813191920518875
1684099780960580900,3.838580810546875,0.15075881779193878,0.34178975224494934,-0.2422844022512436
1684099780970598700,3.8485986328125,0.208126500248909,0.30566078424453735,-0.24679233133792877
1684099780980616700,3.85861669921875,0.2634762227535248,0.4424358308315277,-0.20551162958145142
1684099780990635800,3.8686357421875,0.3409169614315033,0.5993902683258057,-0.20800568163394928
1684099781000653800,3.87865380859375,0.42661258578300476,0.6578364372253418,-0.23736993968486786
1684099781010673000,3.8886728515625,0.4519549310207367,0.7182052135467529,-0.20397444069385529
1684099781020690700,3.898690673828125,0.43019765615463257,0.6770591735839844,-0.16910363733768463
1684099781030709800,3.908709716796875,0.42497119307518005,0.7159029245376587,-0.1547153741121292
1684099781040727800,3.918727783203125,0.4405103623867035,0.7765242457389832,-0.1549948751926422
1684099781050746600,3.92874658203125,0.4358309209346771,0.7850868701934814,-0.16042345762252808
1684099781060764700,3.9387646484375,0.4555025100708008,0.831333339214325,-0.20412084460258484
1684099781070783700,3.94878369140625,0.46015664935112,0.8928408622741699,-0.21523235738277435
1684099781080801800,3.9588017578125,0.48888856172561646,0.9525309801101685,-0.17451077699661255
1684099781090819800,3.96881982421875,0.5231379270553589,0.8453139662742615,-0.05707283690571785
1684099781100838700,3.978838623046875,0.5218176245689392,0.8113192915916443,-0.03566582873463631
1684099781110856700,3.988856689453125,0.45836836099624634,0.6115784645080566,-0.11403600126504898
1684099781120875800,3.998875732421875,0.3529658019542694,0.43881848454475403,-0.1549787074327469
1684099781130893800,4.008893798828125,0.26696062088012695,0.2672850787639618,-0.2245761603116989
1684099781140913000,4.018912841796875,0.1618030071258545,0.21598127484321594,-0.32542791962623596
1684099781150930700,4.0289306640625,0.13512586057186127,0.26490169763565063,-0.38615143299102783
1684099781160949800,4.03894970703125,0.04410601407289505,0.18896383047103882,-0.46904194355010986
1684099781170967800,4.0489677734375,0.06723184138536453,0.272270143032074,-0.5169484615325928
1684099781180986600,4.058986572265625,0.11314622312784195,0.4336448907852173,-0.5078620910644531
1684099781191004700,4.069004638671875,0.024099702015519142,0.6330616474151611,-0.5200910568237305
1684099781201023000,4.07902294921875,0.004831410013139248,0.8697395324707031,-0.5126452445983887
1684099781211041800,4.089041748046875,-0.032515693455934525,1.0231415033340454,-0.5226869583129883
1684099781221059800,4.099059814453125,-0.11009156703948975,1.2256662845611572,-0.5377069711685181
1684099781231079000,4.109078857421875,-0.2108115255832672,1.3248910903930664,-0.5810238122940063
1684099781241096700,4.1190966796875,-0.34250885248184204,1.626654863357544,-0.6496568918228149
1684099781251115800,4.12911572265625,-0.48199430108070374,1.7897206544876099,-0.6135087609291077
1684099781261133600,4.139133544921875,-0.4918299913406372,1.7630395889282227,-0.5390079021453857
1684099781271152600,4.149152587890625,-0.25999170541763306,2.342467784881592,-0.38017702102661133
1684099781281171000,4.1591708984375,-0.19012515246868134,2.491734266281128,-0.12533512711524963
1684099781291189800,4.169189697265625,-0.3517792820930481,1.802003026008606,0.19245615601539612
1684099781301207800,4.179207763671875,-0.5607655644416809,1.0644549131393433,0.5076509118080139
1684099781311225600,4.1892255859375,-0.5561859607696533,0.5120373368263245,0.923888623714447
1684099781321244700,4.19924462890625,-0.3282059133052826,0.21715395152568817,1.4513039588928223
1684099781331262700,4.2092626953125,-0.08184701949357986,0.18248865008354187,2.0272231101989746
1684099781341281500,4.219281494140625,0.09069036692380905,0.1671147644519806,2.577120304107666
1684099781351299800,4.2292998046875,0.1882406324148178,0.09989844262599945,3.0428366661071777
1684099781361319000,4.23931884765625,0.15197432041168213,-0.04764536768198013,3.437509059906006
1684099781371336700,4.249336669921875,-0.031562745571136475,-0.3339165449142456,3.790228843688965
1684099781381355800,4.259355712890625,-0.29313430190086365,-0.6389850378036499,4.140049457550049
1684099781391373800,4.269373779296875,-0.5853748917579651,-0.784674346446991,4.476512908935547
1684099781401392600,4.279392578125,-0.8451625108718872,-0.7246476411819458,4.816526889801025
1684099781411410700,4.28941064453125,-1.0507169961929321,-0.5618411302566528,5.139465808868408
1684099781421428700,4.2994287109375,-1.2102471590042114,-0.45638182759284973,5.432954788208008
1684099781431447800,4.30944775390625,-1.3279149532318115,-0.48734956979751587,5.6753621101379395
1684099781441467000,4.319466796875,-1.4070990085601807,-0.6576070189476013,5.857394695281982
1684099781451484700,4.329484619140625,-1.4597954750061035,-0.9106528759002686,5.978221416473389
1684099781461503700,4.339503662109375,-1.5201488733291626,-1.1963684558868408,6.041926383972168
1684099781471521800,4.349521728515625,-1.608145833015442,-1.4563124179840088,6.062206745147705
1684099781481539800,4.359539794921875,-1.717309832572937,-1.6941726207733154,6.076760292053223
1684099781491559000,4.369558837890625,-1.8826849460601807,-2.0615177154541016,6.076958656311035
1684099781501576700,4.37957666015625,-2.0774190425872803,-2.6125447750091553,6.05647611618042
1684099781511595800,4.389595703125,-2.2772035598754883,-3.269259214401245,6.029980182647705
1684099781521613800,4.39961376953125,-2.4720253944396973,-3.980087995529175,5.9844536781311035
1684099781531632600,4.409632568359375,-2.6496312618255615,-4.6737961769104,5.938689708709717
1684099781541650700,4.419650634765625,-2.7601919174194336,-5.254311561584473,5.906034469604492
1684099781551669800,4.429669677734375,-2.759552001953125,-5.570439338684082,5.831727981567383
1684099781561687800,4.439687744140625,-2.645595073699951,-5.403184413909912,5.597334384918213
1684099781571707000,4.449706787109375,-2.4519295692443848,-4.430599212646484,4.9979329109191895
1684099781581724700,4.459724609375,-2.147900342941284,-2.6451828479766846,4.051723003387451
1684099781591743700,4.46974365234375,-1.7903633117675781,-0.876893162727356,3.151931047439575
1684099781601761800,4.47976171875,-1.42061448097229,0.33537304401397705,2.5112409591674805
1684099781611779600,4.489779541015625,-1.0651041269302368,1.0122729539871216,2.085125684738159
1684099781621798700,4.499798583984375,-0.8256503343582153,1.121039867401123,1.8770900964736938
1684099781631817000,4.50981689453125,-0.7514634728431702,0.881344199180603,1.7909722328186035
1684099781641835800,4.519835693359375,-0.842158317565918,0.5389212369918823,1.7398837804794312
1684099781651853800,4.529853759765625,-0.9998539686203003,0.2066175937652588,1.7243812084197998
1684099781661873000,4.539872802734375,-1.1296541690826416,0.019704004749655724,1.6815332174301147
1684099781671890700,4.549890625,-1.1812736988067627,0.07451106607913971,1.602821946144104
1684099781681909800,4.55990966796875,-1.1759265661239624,0.3262220025062561,1.4446505308151245
1684099781691927600,4.569927490234375,-1.0973385572433472,0.6985383033752441,1.190814733505249
1684099781701946600,4.579946533203125,-0.9384447336196899,0.7458910346031189,0.8935489654541016
1684099781711964700,4.589964599609375,-0.7176348567008972,0.34006547927856445,0.5548529624938965
1684099781721982500,4.599982421875,-0.5028089284896851,-0.45412808656692505,0.13711653649806976
1684099781732001500,4.61000146484375,-0.3148789703845978,-1.524601697921753,-0.32927992939949036
1684099781742019300,4.620019287109375,-0.14279596507549286,-2.7928953170776367,-0.7487273812294006
1684099781752038400,4.630038330078125,-0.039562251418828964,-3.947960615158081,-1.0225578546524048
1684099781762056700,4.640056640625,-0.08784876763820648,-4.464550971984863,-1.038642168045044
1684099781772075500,4.650075439453125,-0.2383173704147339,-4.06074857711792,-0.8698632121086121
1684099781782093600,4.660093505859375,-0.3561778664588928,-3.0218496322631836,-0.6739618182182312
1684099781792112600,4.670112548828125,-0.34871649742126465,-2.216031789779663,-0.5327578186988831
1684099781802130400,4.68013037109375,-0.23987753689289093,-1.9866174459457397,-0.43690600991249084
1684099781812149500,4.6901494140625,-0.13387280702590942,-1.9840887784957886,-0.359485000371933
1684099781822167300,4.700167236328125,-0.11295504122972488,-1.9259358644485474,-0.2983558475971222
1684099781832185600,4.710185546875,-0.16587764024734497,-1.758468508720398,-0.23546847701072693
1684099781842204700,4.72020458984375,-0.2571510374546051,-1.4901059865951538,-0.15882354974746704
1684099781852222500,4.730222412109375,-0.34433814883232117,-1.120828628540039,-0.06182802468538284
1684099781862241500,4.740241455078125,-0.41863036155700684,-0.6588685512542725,0.04568592086434364
1684099781872259600,4.750259521484375,-0.4881196916103363,-0.22734379768371582,0.16767974197864532
1684099781882278400,4.7602783203125,-0.5407149195671082,0.058735936880111694,0.31942492723464966
1684099781892296400,4.77029638671875,-0.5778676271438599,0.21853412687778473,0.498870849609375
1684099781902315500,4.7803154296875,-0.5754874348640442,0.28201329708099365,0.6630329489707947
1684099781912333600,4.79033349609375,-0.5209959745407104,0.20288382470607758,0.7745368480682373
1684099781922352600,4.8003525390625,-0.4117499589920044,-0.010232627391815186,0.8356620669364929
1684099781932370400,4.810370361328125,-0.29221558570861816,-0.3164069354534149,0.8797150254249573
1684099781942388500,4.820388427734375,-0.17991754412651062,-0.6969037055969238,0.9212542176246643
1684099781952407600,4.830407470703125,-0.07708463072776794,-1.0822868347167969,0.9836989045143127
1684099781962425300,4.84042529296875,0.005708388984203339,-1.3930139541625977,1.0416815280914307
1684099781972444400,4.8504443359375,0.06740051507949829,-1.6307170391082764,1.090666651725769
1684099781982462500,4.86046240234375,0.06952440738677979,-1.6971958875656128,1.1366041898727417
1684099781992481500,4.8704814453125,-0.014163292944431305,-1.3535735607147217,1.1551414728164673
1684099782002499600,4.88049951171875,-0.15757344663143158,-0.6987522840499878,1.105635166168213
1684099782012518400,4.890518310546875,-0.31648293137550354,0.41195791959762573,0.9982759356498718
1684099782022536400,4.900536376953125,-0.38379403948783875,2.219151258468628,0.8950344324111938
1684099782032555500,4.910555419921875,-0.3305313289165497,3.619258165359497,0.7391231060028076
1684099782042573600,4.920573486328125,-0.2254319041967392,3.8064279556274414,0.48942533135414124
1684099782052592600,4.930592529296875,-0.17921115458011627,2.995370626449585,0.18699701130390167
1684099782062610700,4.940610595703125,-0.22697441279888153,1.784974217414856,-0.06234461069107056
1684099782072628500,4.95062841796875,-0.3212388753890991,0.6995829343795776,-0.16456152498722076
1684099782082647600,4.9606474609375,-0.4167368710041046,-0.14098036289215088,-0.15411877632141113
1684099782092665300,4.970665283203125,-0.4952189028263092,-0.8021556735038757,-0.1026097759604454
1684099782102684400,4.980684326171875,-0.5438893437385559,-1.3035805225372314,-0.04447858780622482
1684099782112702700,4.99070263671875,-0.5635618567466736,-1.7077977657318115,0.008212321437895298
1684099782122721500,5.000721435546875,-0.5962945818901062,-2.0765695571899414,0.03837435692548752
1684099782132739600,5.010739501953125,-0.6584842205047607,-2.357269525527954,0.038057971745729446
1684099782142758700,5.020758544921875,-0.7443965673446655,-2.447723150253296,0.03075694665312767
1684099782152776400,5.0307763671875,-0.8303956389427185,-2.306525468826294,0.026089489459991455
1684099782162795500,5.04079541015625,-0.8987013101577759,-1.9432644844055176,0.04335632175207138
1684099782172813300,5.050813232421875,-0.9244207739830017,-1.430198311805725,0.07050485163927078
1684099782182831600,5.06083154296875,-0.91135174036026,-0.8738058805465698,0.08892736583948135
1684099782192850700,5.0708505859375,-0.8592613935470581,-0.3495573103427887,0.10339312255382538
1684099782202868500,5.080868408203125,-0.8035237789154053,0.10550859570503235,0.11342345923185349
1684099782212887600,5.090887451171875,-0.7533546090126038,0.498919814825058,0.14663706719875336
1684099782222905300,5.1009052734375,-0.7163812518119812,0.8084670305252075,0.21708431839942932
1684099782232924400,5.11092431640625,-0.6741626858711243,0.9739377498626709,0.34084728360176086
1684099782242942500,5.1209423828125,-0.6323299407958984,0.9028502702713013,0.4772034287452698
1684099782252961300,5.130961181640625,-0.5958422422409058,0.5785805583000183,0.5932461619377136
1684099782262979600,5.1409794921875,-0.5663580894470215,0.05620461702346802,0.676656186580658
1684099782272998700,5.15099853515625,-0.5531464219093323,-0.5368734002113342,0.7221873998641968
1684099782283016400,5.161016357421875,-0.5614317059516907,-1.061751127243042,0.7618144750595093
1684099782293035500,5.171035400390625,-0.5857993960380554,-1.4454231262207031,0.8120366334915161
1684099782303053600,5.181053466796875,-0.6140987277030945,-1.6165896654129028,0.8637334108352661
1684099782313071600,5.191071533203125,-0.6573500633239746,-1.470784306526184,0.9086316227912903
1684099782323090400,5.20109033203125,-0.7279667258262634,-1.02237069606781,0.9229304790496826
1684099782333108500,5.2111083984375,-0.7877666354179382,-0.34985965490341187,0.8873197436332703
1684099782343127600,5.22112744140625,-0.7986623644828796,0.39667755365371704,0.7631307244300842
1684099782353145600,5.2311455078125,-0.7560224533081055,0.9763454794883728,0.5444183349609375
1684099782363164400,5.241164306640625,-0.7257764935493469,1.2019935846328735,0.31203413009643555
1684099782373182500,5.251182373046875,-0.7313460111618042,1.1304683685302734,0.13875208795070648
1684099782383201500,5.261201416015625,-0.7341247200965881,0.8984045386314392,0.08648192137479782
1684099782393219600,5.271219482421875,-0.7238094806671143,0.6249940395355225,0.14929816126823425
1684099782403238700,5.28123876953125,-0.6869929432868958,0.393672913312912,0.25997528433799744
1684099782413256400,5.29125634765625,-0.6082038879394531,0.242447167634964,0.3364175856113434
1684099782423274500,5.3012744140625,-0.532349705696106,0.18424105644226074,0.3540518581867218
1684099782433293600,5.31129345703125,-0.48159515857696533,0.18084900081157684,0.3291739225387573
1684099782443311400,5.321311279296875,-0.47478756308555603,0.19871360063552856,0.27026769518852234
1684099782453330400,5.331330322265625,-0.5079593658447266,0.18556265532970428,0.17776013910770416
1684099782463348700,5.3413486328125,-0.5600010752677917,0.1301954835653305,0.10444104671478271
1684099782473367600,5.351367431640625,-0.6210865378379822,0.033542975783348083,0.07380644232034683
1684099782483385600,5.361385498046875,-0.671218991279602,-0.035256970673799515,0.09828241914510727
1684099782493404700,5.37140478515625,-0.6902124285697937,-0.0343746654689312,0.1715955287218094
1684099782503422500,5.38142236328125,-0.6850540637969971,0.014366487972438335,0.25644686818122864
1684099782513441500,5.391441650390625,-0.6715827584266663,0.04229931905865669,0.31995126605033875
1684099782523459300,5.401459228515625,-0.6359934210777283,0.00615606177598238,0.34158971905708313
1684099782533477600,5.4114775390625,-0.5770518183708191,-0.06824493408203125,0.30161619186401367
1684099782543496700,5.42149658203125,-0.504173994064331,-0.12618045508861542,0.22882655262947083
1684099782553514500,5.431514404296875,-0.4465911090373993,-0.18724887073040009,0.15206439793109894
1684099782563533600,5.441533447265625,-0.4017013907432556,-0.3148845136165619,0.08020354807376862
1684099782573551400,5.45155126953125,-0.3600013554096222,-0.5244497656822205,0.02861279435455799
1684099782583570400,5.4615703125,-0.33046746253967285,-0.7491980791091919,0.008737899363040924
1684099782593588500,5.47158837890625,-0.3319540321826935,-0.9274463653564453,0.021913621574640274
1684099782603607300,5.481607177734375,-0.36681514978408813,-1.0017242431640625,0.06434863060712814
1684099782613625600,5.49162548828125,-0.42997363209724426,-0.9562033414840698,0.10478340089321136
1684099782623644700,5.501644775390625,-0.4921039044857025,-0.8008387684822083,0.10142158716917038
1684099782633662500,5.511662353515625,-0.5213392972946167,-0.5449771285057068,0.057538822293281555
1684099782643680500,5.521680419921875,-0.5162733793258667,-0.22024479508399963,0.00021261931397020817
1684099782653699300,5.53169921875,-0.4872068464756012,0.1315057873725891,-0.04164028912782669
1684099782663717600,5.541717529296875,-0.45728784799575806,0.4386557340621948,-0.06443299353122711
1684099782673736400,5.551736328125,-0.43851974606513977,0.6066538095474243,-0.08025909215211868
1684099782683754500,5.56175439453125,-0.5404127240180969,1.0805474519729614,0.17263849079608917
1684099782693773600,5.571773681640625,-1.485945701599121,3.5630602836608887,1.6071685552597046
1684099782703791600,5.58179150390625,-1.3093723058700562,2.8479278087615967,1.3663963079452515
1684099782713810400,5.591810546875,-0.6229311227798462,1.7539684772491455,0.7206345796585083
1684099782723828500,5.601828369140625,-0.48205938935279846,1.9358965158462524,0.6834024786949158
1684099782733847600,5.61184765625,-0.6821680068969727,2.0644338130950928,0.6548227667808533
1684099782743865600,5.621865478515625,-0.6425154209136963,2.1116557121276855,0.5606261491775513
1684099782753884700,5.631884765625,-0.6877454519271851,2.2163820266723633,0.5434942841529846
1684099782763902500,5.64190234375,-0.6946582198143005,2.2428860664367676,0.5449119210243225
1684099782773920500,5.65192041015625,-0.6778287291526794,2.157275676727295,0.554994523525238
1684099782783939600,5.661939697265625,-0.6367509961128235,1.9866763353347778,0.5735235810279846
1684099782793957400,5.671957275390625,-0.6014145612716675,1.783004641532898,0.597550094127655
1684099782803976400,5.6819765625,-0.5796315670013428,1.5874314308166504,0.6184576153755188
1684099782813994500,5.691994384765625,-0.5703299641609192,1.4320544004440308,0.6365258097648621
1684099782824013600,5.702013671875,-0.5841602683067322,1.3349303007125854,0.6570985913276672
1684099782834031600,5.712031494140625,-0.6047577261924744,1.293126106262207,0.6725587844848633
1684099782844050400,5.722050537109375,-0.6367689371109009,1.3075758218765259,0.6874863505363464
1684099782854068500,5.732068359375,-0.6703596115112305,1.3559963703155518,0.7031875252723694
1684099782864087600,5.742087646484375,-0.6996648907661438,1.4292885065078735,0.7172987461090088
1684099782874105300,5.752105224609375,-0.7222714424133301,1.4937242269515991,0.7313767671585083
1684099782884123600,5.76212353515625,-0.7351332306861877,1.5417464971542358,0.7210846543312073
1684099782894142700,5.772142822265625,-0.7371510863304138,1.5514609813690186,0.6848281025886536
1684099782904160500,5.782160400390625,-0.7160533666610718,1.5196540355682373,0.6324313879013062
1684099782914179600,5.7921796875,-0.6760553121566772,1.447582483291626,0.5622804760932922
1684099782924197400,5.802197265625,-0.6230849027633667,1.3313350677490234,0.4770011901855469
1684099782934216400,5.812216552734375,-0.5590976476669312,1.1910227537155151,0.3836022615432739
1684099782944234500,5.822234375,-0.4907080829143524,1.0372694730758667,0.28072595596313477
1684099782954253300,5.83225341796875,-0.42517009377479553,0.8806804418563843,0.18401619791984558
1684099782964271600,5.842271728515625,-0.36488422751426697,0.7376617193222046,0.10329892486333847
1684099782974290700,5.852290771484375,-0.32443904876708984,0.63279789686203,0.04236207529902458
1684099782984308500,5.86230859375,-0.29780352115631104,0.5555487275123596,0.02272162400186062
1684099782994326500,5.872326416015625,-0.2821659743785858,0.5001112818717957,0.031675972044467926
1684099783004345300,5.882345458984375,-0.2661018669605255,0.4560053050518036,0.04976731538772583
1684099783014363600,5.89236376953125,-0.26930007338523865,0.41009026765823364,0.08353327214717865
1684099783024382500,5.902382568359375,-0.27360641956329346,0.35936570167541504,0.11190582066774368
1684099783034400500,5.912400390625,-0.27910345792770386,0.3004153072834015,0.12406155467033386
1684099783044419600,5.922419677734375,-0.28671956062316895,0.2569112479686737,0.12137042731046677
1684099783054437400,5.932437255859375,-0.292434424161911,0.22497621178627014,0.11003255099058151
1684099783064456400,5.94245654296875,-0.2938631772994995,0.19045837223529816,0.08331003040075302
1684099783074474500,5.952474609375,-0.2877759635448456,0.17652657628059387,0.05291564390063286
1684099783084493300,5.962493408203125,-0.27832260727882385,0.17211246490478516,0.02073649875819683
1684099783094511600,5.97251171875,-0.26710590720176697,0.17557084560394287,-0.012682177126407623
1684099783104529700,5.98252978515625,-0.25430822372436523,0.16088314354419708,-0.044748228043317795
1684099783114548500,5.992548583984375,-0.2506575882434845,0.127900168299675,-0.07425951212644577
1684099783124566500,6.00256640625,-0.2454793006181717,0.07710908353328705,-0.09903571009635925
1684099783134585600,6.012585693359375,-0.23966854810714722,0.02740517631173134,-0.11305086314678192
1684099783144603400,6.022603271484375,-0.23834602534770966,-0.012870005331933498,-0.11930901557207108
1684099783154622500,6.03262255859375,-0.23745013773441315,-0.04360288381576538,-0.12386675179004669
1684099783164640500,6.042640625,-0.22768352925777435,-0.07390466332435608,-0.12860745191574097
1684099783174659600,6.05265966796875,-0.2149336338043213,-0.11106588691473007,-0.1380225270986557
1684099783184677600,6.062677734375,-0.19951054453849792,-0.166063129901886,-0.1463274508714676
1684099783194696400,6.072696533203125,-0.18898093700408936,-0.23668377101421356,-0.17119765281677246
1684099783204714500,6.082714599609375,-0.17631666362285614,-0.32413050532341003,-0.20177291333675385
1684099783214733600,6.092733642578125,-0.1659202128648758,-0.4346897602081299,-0.24232672154903412
1684099783224751400,6.10275146484375,-0.15599332749843597,-0.5822620987892151,-0.2961842715740204
1684099783234769700,6.112769775390625,-0.14346608519554138,-0.7690492868423462,-0.3557027280330658
1684099783244788500,6.12278857421875,-0.13069334626197815,-0.9955199360847473,-0.4199196696281433
1684099783254806500,6.132806640625,-0.12072114646434784,-1.2350406646728516,-0.49089744687080383
1684099783264825600,6.14282568359375,-0.10468338429927826,-1.4765609502792358,-0.5652115345001221
1684099783274843400,6.152843505859375,-0.07297392934560776,-1.713843822479248,-0.6360303163528442
1684099783284862500,6.162862548828125,-0.03589107096195221,-1.9405326843261719,-0.7034659385681152
1684099783294880500,6.172880615234375,0.012955031357705593,-2.1461641788482666,-0.7705091834068298
1684099783304899300,6.1828994140625,0.06951211392879486,-2.3214688301086426,-0.8355013132095337
1684099783314917600,6.192917724609375,0.14302308857440948,-2.4630258083343506,-0.9089795351028442
1684099783324935400,6.202935302734375,0.23887725174427032,-2.5586724281311035,-0.9864745140075684
1684099783334954500,6.21295458984375,0.3641997277736664,-2.614443063735962,-1.0677897930145264
1684099783344972500,6.22297265625,0.5288668870925903,-2.6673624515533447,-1.1286157369613647
1684099783354991400,6.232991455078125,0.7307201027870178,-2.7306103706359863,-1.127539873123169
1684099783365009700,6.243009765625,0.9974709749221802,-2.7818195819854736,-1.0215307474136353
1684099783375028700,6.25302880859375,1.2728629112243652,-2.853480815887451,-0.8157616257667542
1684099783385046500,6.263046630859375,1.5061250925064087,-2.916088819503784,-0.5090290307998657
1684099783395065600,6.273065673828125,1.593666911125183,-2.8236634731292725,-0.08579733222723007
1684099783405083400,6.28308349609375,1.438918113708496,-2.572331428527832,0.3649672865867615
1684099783415102500,6.2931025390625,1.1139442920684814,-2.2138922214508057,0.716637134552002
1684099783425120500,6.30312060546875,0.7650007605552673,-1.75010085105896,0.8924354314804077
1684099783435139300,6.313139404296875,0.5077689290046692,-1.189214825630188,0.8888063430786133
1684099783445157600,6.32315771484375,0.362239807844162,-0.5755499601364136,0.7529332041740417
1684099783455175400,6.333175537109375,0.37227964401245117,0.05671509727835655,0.5676994323730469
1684099783465194500,6.343194580078125,0.42271363735198975,0.6361032128334045,0.40397077798843384
1684099783475212500,6.353212646484375,0.4165492355823517,1.0816479921340942,0.27488577365875244
1684099783485231400,6.3632314453125,0.3410011827945709,1.3506938219070435,0.16867706179618835
1684099783495249400,6.37324951171875,0.28115567564964294,1.478489875793457,0.07037073373794556
1684099783505268500,6.3832685546875,0.2795465588569641,1.4871197938919067,-0.04529213905334473
1684099783515286500,6.39328662109375,0.32771992683410645,1.4094750881195068,-0.21525587141513824
1684099783525305600,6.4033056640625,0.3928867280483246,1.2712100744247437,-0.4209325909614563
1684099783535323600,6.41332373046875,0.44710442423820496,1.1258981227874756,-0.6284520030021667
1684099783545342500,6.423342529296875,0.4768744111061096,1.0210624933242798,-0.8218252062797546
1684099783555360500,6.433360595703125,0.4797722101211548,0.9394925832748413,-0.9797000288963318
1684099783565378300,6.44337841796875,0.45000049471855164,0.824259877204895,-1.0883657932281494
1684099783575397400,6.4533974609375,0.393446683883667,0.6342718005180359,-1.1511828899383545
1684099783585415700,6.463415771484375,0.31807565689086914,0.3996374011039734,-1.187617301940918
1684099783595434500,6.4734345703125,0.2455686777830124,0.20262421667575836,-1.2028796672821045
1684099783605452500,6.48345263671875,0.19573163986206055,0.1417854130268097,-1.176071286201477
1684099783615471600,6.4934716796875,0.160580575466156,0.26563945412635803,-1.0883276462554932
1684099783625489400,6.503489501953125,0.14001654088497162,0.5694863200187683,-0.9365864396095276
1684099783635508500,6.513508544921875,0.14948700368404388,0.9690039157867432,-0.7607898116111755
1684099783645526500,6.523526611328125,0.20195579528808594,1.2968207597732544,-0.6009884476661682
1684099783655545600,6.533545654296875,0.27612829208374023,1.417219877243042,-0.4803405702114105
1684099783665563600,6.543563720703125,0.3503265082836151,1.3241392374038696,-0.38782796263694763
1684099783675581400,6.55358154296875,0.4013902246952057,1.071426272392273,-0.31371060013771057
1684099783685600500,6.5636005859375,0.4198353588581085,0.7145907878875732,-0.25283172726631165
1684099783695618300,6.573618408203125,0.3993902802467346,0.3199159502983093,-0.20343860983848572
1684099783705637000,6.58363720703125,0.3647766411304474,-0.024080589413642883,-0.15523380041122437
1684099783715655200,6.5936552734375,0.3671969175338745,-0.26825037598609924,-0.11142399907112122
1684099783725674200,6.60367431640625,0.40336936712265015,-0.46891605854034424,-0.06467899680137634
1684099783735692300,6.6136923828125,0.41643083095550537,-0.6554718017578125,-0.005880666896700859
1684099783745711000,6.623711181640625,0.4090864956378937,-0.7917308211326599,0.03424016386270523
1684099783755729200,6.633729248046875,0.4009111225605011,-0.836715042591095,0.03182440996170044
1684099783765748200,6.643748291015625,0.39151859283447266,-0.79570472240448,-0.015942685306072235
1684099783775766000,6.65376611328125,0.3639998733997345,-0.7312645316123962,-0.07045333087444305
1684099783785785000,6.66378515625,0.29579994082450867,-0.6927026510238647,-0.09417810291051865
1684099783795803100,6.67380322265625,0.21165309846401215,-0.6463775038719177,-0.08504985272884369
1684099783805821200,6.6838212890625,0.16179178655147552,-0.532756507396698,-0.06145554408431053
1684099783815840300,6.69384033203125,0.15999707579612732,-0.3213537335395813,-0.054678864777088165
1684099783825858000,6.703858154296875,0.18235668540000916,0.004933967255055904,-0.09218359738588333
1684099783835877000,6.713877197265625,0.18286322057247162,0.39509373903274536,-0.16995348036289215
1684099783845895200,6.723895263671875,0.1650238037109375,0.727739691734314,-0.27558115124702454
1684099783855914200,6.733914306640625,0.14956627786159515,0.9287875890731812,-0.3803834617137909
1684099783865932300,6.743932373046875,0.1411084234714508,0.9718345999717712,-0.4654812216758728
1684099783875951400,6.753951416015625,0.12762057781219482,0.8728187680244446,-0.5046669840812683
1684099783885969200,6.76396923828125,0.11020790040493011,0.6487972736358643,-0.49083638191223145
1684099783895988200,6.77398828125,0.11795477569103241,0.3518158793449402,-0.45058804750442505
1684099783906006000,6.784006103515625,0.14721226692199707,0.06259233504533768,-0.42228052020072937
1684099783916024300,6.7940244140625,0.18025650084018707,-0.1835593730211258,-0.40624693036079407
1684099783926043400,6.80404345703125,0.1918686032295227,-0.3685627579689026,-0.3667113482952118
1684099783936061200,6.814061279296875,0.1887284815311432,-0.4730082154273987,-0.2929348647594452
1684099783946080300,6.824080322265625,0.17706772685050964,-0.4851640462875366,-0.1734873652458191
1684099783956098000,6.83409814453125,0.17323197424411774,-0.3961694538593292,-0.051737766712903976
1684099783966117000,6.8441171875,0.18251118063926697,-0.2447357177734375,0.026601584628224373
1684099783976135200,6.85413525390625,0.17391343414783478,-0.07176367938518524,0.04609352722764015
1684099783986154000,6.864154052734375,0.13768869638442993,0.04824565351009369,0.034471042454242706
1684099783996172300,6.87417236328125,0.0959891825914383,0.07000154256820679,0.019428979605436325
1684099784006191400,6.88419140625,0.061961546540260315,0.0007247114554047585,0.019518207758665085
1684099784016209200,6.894209228515625,0.04424406588077545,-0.10312365740537643,0.037154991179704666
1684099784026227200,6.904227294921875,0.03948836401104927,-0.19152472913265228,0.07323942333459854
1684099784036246000,6.91424609375,0.03303739055991173,-0.23023352026939392,0.10479921847581863
1684099784046264000,6.92426416015625,0.022110236808657646,-0.2148168981075287,0.11444960534572601
1684099784056283100,6.934283203125,0.01280701719224453,-0.1756708174943924,0.09021084010601044
1684099784066301200,6.94430126953125,-0.0058302124962210655,-0.16193339228630066,0.045062847435474396
1684099784076320300,6.9543203125,-0.02455116994678974,-0.18141815066337585,0.0000024280743673443794
1684099784086338300,6.96433837890625,-0.035341620445251465,-0.23532740771770477,-0.013185310177505016
1684099784096357000,6.974357177734375,-0.03633524477481842,-0.2992744445800781,0.014680941589176655
1684099784106375200,6.984375244140625,-0.03205453231930733,-0.3356517553329468,0.05605673789978027
1684099784116394200,6.994394287109375,-0.01980905421078205,-0.3234366476535797,0.0876612663269043
1684099784126412000,7.004412109375,-0.01858668215572834,-0.26086151599884033,0.08016982674598694
1684099784136430300,7.014430419921875,-0.029576750472187996,-0.1853979229927063,0.04114200547337532
1684099784146449200,7.02444921875,-0.04295442998409271,-0.10768439620733261,-0.0049611348658800125
1684099784156467200,7.03446728515625,-0.046888452023267746,-0.04403165355324745,-0.0434051938354969
1684099784166486300,7.044486328125,-0.04320615530014038,-0.01601984351873398,-0.06942921131849289
1684099784176504000,7.054504150390625,-0.034805748611688614,-0.017735984176397324,-0.08300574123859406
1684099784186523100,7.064523193359375,-0.021026089787483215,-0.047409504652023315,-0.08385702222585678
1684099784196541200,7.074541259765625,-0.01377882994711399,-0.09451071172952652,-0.07487311214208603
1684099784206560300,7.084560302734375,-0.010706678032875061,-0.1429123878479004,-0.05482816323637962
1684099784216578300,7.094578369140625,-0.012016952969133854,-0.1736292839050293,-0.032930321991443634
1684099784226597000,7.10459716796875,-0.012671726755797863,-0.1864195317029953,-0.03026815690100193
1684099784236615200,7.114615234375,-0.0158680509775877,-0.17564091086387634,-0.03665494918823242
1684099784246634200,7.12463427734375,-0.022613564506173134,-0.11626660823822021,-0.05227601155638695
1684099784256652000,7.134652099609375,-0.03451869636774063,-0.026987867429852486,-0.06198536604642868
1684099784266670300,7.14467041015625,-0.0515739805996418,0.06820785999298096,-0.07860397547483444
1684099784276689400,7.154689453125,-0.054248593747615814,0.12138079851865768,-0.08579957485198975
1684099784286707200,7.164707275390625,-0.04457857832312584,0.14175184071063995,-0.07469301670789719
1684099784296726300,7.174726318359375,-0.024748951196670532,0.12087611854076385,-0.0383206307888031
1684099784306744000,7.184744140625,0.001283672172576189,0.0501612089574337,0.018508100882172585
1684099784316763100,7.19476318359375,0.01757289655506611,-0.06507404148578644,0.07267946004867554
1684099784326781200,7.20478125,0.02484717406332493,-0.1831897795200348,0.1119225025177002
1684099784336800000,7.214800048828125,0.022767778486013412,-0.25724297761917114,0.13210925459861755
1684099784346818300,7.224818359375,0.013693497516214848,-0.27938202023506165,0.12167543917894363
1684099784356837400,7.23483740234375,0.005938905756920576,-0.24538010358810425,0.10165485739707947
1684099784366855200,7.244855224609375,-0.0016651543555781245,-0.17953652143478394,0.08236414194107056
1684099784376874200,7.254874267578125,-0.003430563723668456,-0.0975274071097374,0.07695339620113373
1684099784386892000,7.26489208984375,-0.005281966179609299,-0.01670094206929207,0.08037735521793365
1684099784396910000,7.27491015625,0.0014893874758854508,0.03532976657152176,0.08318059891462326
1684099784406929200,7.28492919921875,0.0017498446395620704,0.05097930133342743,0.0663566142320633
1684099784416947200,7.294947265625,-0.002901099855080247,0.039224106818437576,0.029536282643675804
1684099784426966300,7.30496630859375,-0.009554587304592133,0.02861163765192032,-0.025768041610717773
1684099784436984000,7.314984130859375,-0.01646442525088787,0.033580295741558075,-0.07141195237636566
1684099784447003100,7.325003173828125,-0.01564875990152359,0.027792930603027344,-0.09600210189819336
1684099784457021200,7.335021240234375,-0.01083989068865776,-0.011468986049294472,-0.08663816004991531
1684099784467040000,7.3450400390625,-0.0026184467133134604,-0.06530957669019699,-0.06505510956048965
1684099784477058000,7.35505810546875,0.0032988309394568205,-0.10814812779426575,-0.04378524050116539
1684099784487076400,7.365076416015625,0.00364129850640893,-0.11433031409978867,-0.03436323255300522
1684099784497095200,7.37509521484375,0.0029917533975094557,-0.10160679370164871,-0.033195167779922485
1684099784507113200,7.38511328125,-0.0005477624363265932,-0.06276628375053406,-0.043678075075149536
1684099784517132300,7.39513232421875,-0.001046838820911944,-0.010632771998643875,-0.055230602622032166
1684099784527150000,7.405150146484375,-0.005629964172840118,0.027736276388168335,-0.06300099939107895
1684099784537169200,7.415169189453125,-0.00687152985483408,0.026586856693029404,-0.060449425131082535
1684099784547187200,7.425187255859375,-0.010309915989637375,0.0006219637580215931,-0.03472759202122688
1684099784557206300,7.435206298828125,-0.0063977325335145,-0.029091989621520042,0.0016511910362169147
1684099784567224300,7.445224365234375,-0.0009985866490751505,-0.05152755230665207,0.032377712428569794
1684099784577243100,7.4552431640625,0.000689591106493026,-0.07392207533121109,0.06236490234732628
1684099784587261200,7.46526123046875,0.002966018859297037,-0.09111916273832321,0.07421444356441498
1684099784597280300,7.4752802734375,0.005982847884297371,-0.10081066936254501,0.07510793954133987
1684099784607298000,7.485298095703125,0.0051856376230716705,-0.09463123977184296,0.06544411927461624
1684099784617316400,7.49531640625,-0.0023116935044527054,-0.07988371700048447,0.05146651715040207
1684099784627335200,7.505335205078125,-0.009849385358393192,-0.05580025166273117,0.029155384749174118
1684099784637353200,7.515353271484375,-0.020006414502859116,-0.01565070077776909,-0.007623935583978891
1684099784647372300,7.525372314453125,-0.0328589491546154,0.026580939069390297,-0.03633097931742668
1684099784657390000,7.53539013671875,-0.04307962954044342,0.047320038080215454,-0.04952215030789375
1684099784667409200,7.5454091796875,-0.046227797865867615,0.05189969018101692,-0.04213177412748337
1684099784677427200,7.55542724609375,-0.044498343020677567,0.0387258306145668,-0.02669130265712738
1684099784687446000,7.565446044921875,-0.03807683289051056,0.029274379834532738,-0.006160126533359289
1684099784697464300,7.57546435546875,-0.025649456307291985,0.032086681574583054,0.0016983289970085025
1684099784707483400,7.5854833984375,-0.01295656617730856,0.046649377793073654,0.007831055670976639
1684099784717501400,7.59550146484375,-0.0066824243403971195,0.06457005441188812,0.007054478395730257
1684099784727519200,7.605519287109375,-0.0029926695860922337,0.08311698585748672,-0.003598571754992008
1684099784737538300,7.615538330078125,0.009544427506625652,0.08626671135425568,-0.005652934312820435
1684099784747556000,7.62555615234375,0.020128460600972176,0.0788714811205864,-0.009177028201520443
1684099784757575200,7.6355751953125,0.02573974058032036,0.04065246134996414,-0.003947379067540169
1684099784767593500,7.645593505859375,0.030008450150489807,-0.022137470543384552,0.004333589691668749
1684099784777612300,7.6556123046875,0.03268492594361305,-0.06833532452583313,0.015257610008120537
1684099784787630300,7.66563037109375,0.024929754436016083,-0.085981085896492,0.0338582918047905
1684099784797649400,7.6756494140625,0.005799735430628061,-0.08150404691696167,0.06186755374073982
1684099784807667200,7.685667236328125,-0.014469632878899574,-0.06969258189201355,0.09594439715147018
1684099784817686300,7.695686279296875,-0.031494155526161194,-0.06494522839784622,0.1258130818605423
1684099784827704000,7.7057041015625,-0.03905750438570976,-0.08176116645336151,0.13663050532341003
1684099784837723100,7.71572314453125,-0.03712538257241249,-0.11120320856571198,0.13172364234924316
1684099784847741400,7.725741455078125,-0.04074789583683014,-0.11868394911289215,0.11565937846899033
1684099784857759200,7.73575927734375,-0.04093511775135994,-0.08488389849662781,0.09946469217538834
1684099784867778300,7.7457783203125,-0.043342530727386475,-0.027407914400100708,0.07958107441663742
1684099784877796400,7.75579638671875,-0.0387488454580307,0.028652958571910858,0.058845970779657364
1684099784887815200,7.765815185546875,-0.031743280589580536,0.05091482400894165,0.0326484851539135
1684099784897833500,7.77583349609375,-0.02129197306931019,0.015038049779832363,0.007152712903916836
1684099784907852300,7.785852294921875,-0.01418189238756895,-0.07817557454109192,-0.00760273402556777
1684099784917870300,7.795870361328125,-0.01312674768269062,-0.19373971223831177,-0.011024896055459976
1684099784927889400,7.805889404296875,-0.027352310717105865,-0.270303875207901,-0.008543592877686024
1684099784937907200,7.8159072265625,-0.052012115716934204,-0.2578701078891754,-0.014374851249158382
1684099784947926300,7.82592626953125,-0.0809129998087883,-0.16198144853115082,-0.03341567888855934
1684099784957944300,7.8359443359375,-0.10883943736553192,-0.03019120544195175,-0.050593599677085876
1684099784967962400,7.84596240234375,-0.1377420723438263,0.07129524648189545,-0.059402745217084885
1684099784977981400,7.8559814453125,-0.1598372608423233,0.12046173214912415,-0.047131698578596115
1684099784987999200,7.865999267578125,-0.174001544713974,0.1021445095539093,-0.010670362040400505
1684099784998018300,7.876018310546875,-0.18088875710964203,0.03887312486767769,0.043018169701099396
1684099785008036400,7.886036376953125,-0.1890086829662323,-0.013058329001069069,0.10463322699069977
1684099785018055200,7.89605517578125,-0.2109704464673996,-0.031699392944574356,0.15820936858654022
1684099785028073200,7.9060732421875,-0.23830600082874298,-0.0035956348292529583,0.1888510286808014
1684099785038092300,7.91609228515625,-0.27418357133865356,0.047014012932777405,0.18969179689884186
1684099785048110300,7.9261103515625,-0.29999327659606934,0.09886214882135391,0.15811964869499207
1684099785058128400,7.93612841796875,-0.30892470479011536,0.09462825208902359,0.1257590353488922
1684099785068147500,7.9461474609375,-0.29628124833106995,-0.0013148155994713306,0.13383188843727112
1684099785078165200,7.956165283203125,-0.26998281478881836,-0.16815119981765747,0.1949051022529602
1684099785088184300,7.966184326171875,-0.23957303166389465,-0.3486562669277191,0.3047974407672882
1684099785098202000,7.9762021484375,-0.22068509459495544,-0.49438416957855225,0.42340102791786194
1684099785108221200,7.98622119140625,-0.21785560250282288,-0.5584192872047424,0.5106038451194763
1684099785118239500,7.996239501953125,-0.22136670351028442,-0.5174037218093872,0.5255318880081177
1684099785128258300,8.00625830078125,-0.23055590689182281,-0.41445687413215637,0.4965057373046875
1684099785138276400,8.0162763671875,-0.24836233258247375,-0.33032387495040894,0.45572155714035034
1684099785148294100,8.026294189453125,-0.2779370844364166,-0.28335848450660706,0.42948636412620544
1684099785158313200,8.036313232421875,-0.30634209513664246,-0.24475224316120148,0.4220271110534668
1684099785168331300,8.046331298828125,-0.3201061189174652,-0.1657184660434723,0.41554000973701477
1684099785178350300,8.056350341796875,-0.32361751794815063,-0.03779326751828194,0.387764573097229
1684099785188368400,8.066368408203125,-0.32794156670570374,0.10467882454395294,0.31488585472106934
1684099785198387500,8.076387451171875,-0.33672305941581726,0.1777178794145584,0.19729210436344147
1684099785208405200,8.0864052734375,-0.3453890383243561,0.13597464561462402,0.0601140633225441
1684099785218424300,8.09642431640625,-0.3541950285434723,-0.013752803206443787,-0.051954418420791626
1684099785228442000,8.106442138671875,-0.3677108585834503,-0.18299642205238342,-0.11660710722208023
1684099785238461200,8.116461181640625,-0.38272789120674133,-0.26526784896850586,-0.12030117958784103
1684099785248479500,8.1264794921875,-0.4069206714630127,-0.24282170832157135,-0.08730873465538025
1684099785258497300,8.136497314453125,-0.4336867928504944,-0.11925502866506577,-0.05856470763683319
1684099785268516400,8.146516357421875,-0.445723295211792,0.06975746154785156,-0.0261109359562397
1684099785278534400,8.156534423828125,-0.4473598003387451,0.25316405296325684,0.006480296142399311
1684099785288553200,8.16655322265625,-0.4396180212497711,0.33521702885627747,0.07985497266054153
1684099785298571300,8.1765712890625,-0.4141677916049957,0.2907715439796448,0.1969328671693802
1684099785308590300,8.18659033203125,-0.3844647705554962,0.16895315051078796,0.32002681493759155
1684099785318608400,8.1966083984375,-0.3595184087753296,0.02988022193312645,0.39594608545303345
1684099785328627500,8.20662744140625,-0.34278228878974915,-0.09145686030387878,0.39850643277168274
1684099785338645200,8.216645263671875,-0.3235139548778534,-0.1824970543384552,0.33340921998023987
1684099785348664300,8.226664306640625,-0.3309103548526764,-0.23933309316635132,0.2548937499523163
1684099785358682400,8.236682373046875,-0.35965201258659363,-0.2634703814983368,0.22542399168014526
1684099785368700200,8.2467001953125,-0.3635527491569519,-0.23189127445220947,0.25364530086517334
1684099785378719200,8.25671923828125,-0.34417080879211426,-0.17116667330265045,0.32458844780921936
1684099785388737300,8.2667373046875,-0.3079860508441925,-0.13650301098823547,0.4066058099269867
1684099785398756400,8.27675634765625,-0.281242311000824,-0.16076786816120148,0.47492629289627075
1684099785408774400,8.2867744140625,-0.2648463249206543,-0.23667120933532715,0.5074488520622253
1684099785418793200,8.296793212890625,-0.2689497470855713,-0.3415275812149048,0.4993678033351898
1684099785428812300,8.306812255859375,-0.2799791693687439,-0.4348014295101166,0.4409744441509247
1684099785438831400,8.316831298828125,-0.29189014434814453,-0.4523971974849701,0.34996411204338074
1684099785448849200,8.32684912109375,-0.3033199608325958,-0.40884509682655334,0.23673270642757416
1684099785458867200,8.3368671875,-0.3285142779350281,-0.3288229703903198,0.1489463895559311
1684099785468886300,8.34688623046875,-0.35159042477607727,-0.23018164932727814,0.11430881917476654
1684099785478904300,8.356904296875,-0.35327380895614624,-0.1254267394542694,0.13964347541332245
1684099785488923400,8.36692333984375,-0.34162622690200806,-0.04547471925616264,0.20264051854610443
1684099785498941200,8.376941162109375,-0.3392663896083832,-0.008545199409127235,0.2545498013496399
1684099785508960300,8.386960205078125,-0.33150413632392883,-0.011304283514618874,0.263094425201416
1684099785518978300,8.396978271484375,-0.32150396704673767,-0.018881509080529213,0.2233310341835022
1684099785528997000,8.4069970703125,-0.3166334629058838,-0.007091123145073652,0.17312410473823547
1684099785539015200,8.41701513671875,-0.31971925497055054,0.041086792945861816,0.15135888755321503
1684099785549034200,8.4270341796875,-0.3504045903682709,0.1759769320487976,0.19158855080604553
1684099785559052300,8.43705224609375,-1.4896870851516724,2.638451337814331,1.4553487300872803
1684099785569070300,8.4470703125,-1.8445714712142944,3.1362030506134033,1.688016653060913
1684099785579089400,8.45708935546875,-0.9288743138313293,1.9848061800003052,0.8447221517562866
1684099785589107200,8.467107177734375,-0.8377457857131958,2.379582166671753,0.7261766791343689
1684099785599126300,8.477126220703125,-0.9308794736862183,2.8044495582580566,0.6595499515533447
1684099785609144300,8.487144287109375,-0.7532678246498108,3.094292402267456,0.515554666519165
1684099785619163400,8.497163330078125,-0.6977810859680176,3.4240705966949463,0.48119696974754333
1684099785629181400,8.507181396484375,-0.6141093969345093,3.5639376640319824,0.45045006275177
1684099785639200300,8.5172001953125,-0.5222617387771606,3.529484987258911,0.45739370584487915
1684099785649218300,8.52721826171875,-0.4428611099720001,3.3230602741241455,0.46696439385414124
1684099785659237400,8.5372373046875,-0.3878260850906372,3.0206942558288574,0.46867308020591736
1684099785669255200,8.547255126953125,-0.376602441072464,2.6579508781433105,0.4505917429924011
1684099785679273500,8.5572734375,-0.39126527309417725,2.3131842613220215,0.4282589852809906
1684099785689292300,8.567292236328125,-0.43485361337661743,2.0059220790863037,0.4100525379180908
1684099785699310300,8.577310302734375,-0.47423988580703735,1.7580612897872925,0.40544313192367554
1684099785709329400,8.587329345703125,-0.5052293539047241,1.5735281705856323,0.4123947322368622
1684099785719347500,8.597347412109375,-0.5326910614967346,1.457409381866455,0.41891494393348694
1684099785729366300,8.6073662109375,-0.5549303889274597,1.397367000579834,0.4070832133293152
1684099785739384300,8.61738427734375,-0.5776612758636475,1.3768830299377441,0.38471850752830505
1684099785749403400,8.6274033203125,-0.5913945436477661,1.3886386156082153,0.3553593158721924
1684099785759421400,8.63742138671875,-0.588273286819458,1.4078432321548462,0.32026150822639465
1684099785769440500,8.6474404296875,-0.5626029372215271,1.4247885942459106,0.29618197679519653
1684099785779458300,8.657458251953125,-0.5211250185966492,1.4194375276565552,0.27635660767555237
1684099785789476400,8.667476318359375,-0.4663093686103821,1.3717536926269531,0.25492173433303833
1684099785799495400,8.677495361328125,-0.40841996669769287,1.2750135660171509,0.23459435999393463
1684099785809513200,8.68751318359375,-0.35661378502845764,1.147616982460022,0.21064668893814087
1684099785819532300,8.6975322265625,-0.3155243992805481,1.0077248811721802,0.18372079730033875
1684099785829550300,8.70755029296875,-0.28771188855171204,0.874529242515564,0.16078078746795654
1684099785839569400,8.7175693359375,-0.2797085642814636,0.7829809188842773,0.14249418675899506
1684099785849587500,8.72758740234375,-0.2772393822669983,0.7285417914390564,0.13978762924671173
1684099785859606300,8.737606201171875,-0.27090853452682495,0.7142616510391235,0.1383095681667328
1684099785869624300,8.747624267578125,-0.2491159588098526,0.7144756317138672,0.14410576224327087
1684099785879643400,8.757643310546875,-0.2137097716331482,0.7225111722946167,0.14778545498847961
1684099785889661400,8.767661376953125,-0.16365006566047668,0.7337483763694763,0.137912318110466
1684099785899679500,8.777679443359375,-0.12272845208644867,0.7453517913818359,0.11505334824323654
1684099785909698600,8.787698486328125,-0.0943438857793808,0.7413299679756165,0.09669684618711472
1684099785919716400,8.79771630859375,-0.0810517817735672,0.7271049618721008,0.08011520653963089
1684099785929735400,8.8077353515625,-0.07455690950155258,0.6939790844917297,0.07870358973741531
1684099785939753200,8.817753173828125,-0.07691887021064758,0.6627069115638733,0.08843185007572174
1684099785949772300,8.827772216796875,-0.07432962954044342,0.6438086032867432,0.10343693196773529
1684099785959790600,8.83779052734375,-0.06900836527347565,0.6418660879135132,0.112630695104599
1684099785969809400,8.847809326171875,-0.0619216188788414,0.6617809534072876,0.11771690845489502
1684099785979827500,8.857827392578125,-0.055095136165618896,0.6871060132980347,0.11230216920375824
1684099785989846500,8.867846435546875,-0.05627019703388214,0.7129974365234375,0.0988493412733078
1684099785999864300,8.8778642578125,-0.0628705769777298,0.7288480401039124,0.08824756741523743
1684099786009882400,8.88788232421875,-0.07287333160638809,0.7336798906326294,0.07501818239688873
1684099786019901200,8.897901123046875,-0.0782257542014122,0.720563530921936,0.06624998897314072
1684099786029919500,8.90791943359375,-0.08102444559335709,0.6904824376106262,0.06652635335922241
1684099786039938600,8.9179384765625,-0.08457017689943314,0.6466693878173828,0.06321577727794647
1684099786049956400,8.927956298828125,-0.08216633647680283,0.5806451439857483,0.06052399054169655
1684099786059975400,8.937975341796875,-0.07655905187129974,0.4995226263999939,0.04785426706075668
1684099786069993500,8.947993408203125,-0.07751931995153427,0.41092649102211,0.034830208867788315
1684099786080012300,8.95801220703125,-0.07580610364675522,0.3271847069263458,0.023416435346007347
1684099786090030300,8.9680302734375,-0.07241800427436829,0.2630001902580261,0.02369360625743866
1684099786100049400,8.97804931640625,-0.06612948328256607,0.21670006215572357,0.03226073086261749
1684099786110067500,8.9880673828125,-0.05573359131813049,0.18921397626399994,0.03772690147161484
1684099786120085500,8.99808544921875,-0.05714187026023865,0.1799411177635193,0.040125079452991486
1684099786130104300,9.008104248046875,-0.0585823729634285,0.17548245191574097,0.042531777173280716
1684099786140122400,9.018122314453125,-0.06479819118976593,0.1787799894809723,0.03846459835767746
1684099786150141400,9.028141357421875,-0.07182494550943375,0.18584728240966797,0.03612184524536133
1684099786160159200,9.0381591796875,-0.07883810997009277,0.1859162598848343,0.037541575729846954
1684099786170178300,9.04817822265625,-0.08463314920663834,0.18550419807434082,0.041148532181978226
1684099786180196400,9.0581962890625,-0.08117982745170593,0.17861352860927582,0.04441117122769356
1684099786190215400,9.06821533203125,-0.07768283784389496,0.17743515968322754,0.04472438618540764
1684099786200233500,9.0782333984375,-0.07418850064277649,0.1853404939174652,0.04826772212982178
1684099786210252300,9.088252197265625,-0.07070250064134598,0.2116546630859375,0.047218065708875656
1684099786220270300,9.098270263671875,-0.05790814384818077,0.2551038861274719,0.048834338784217834
1684099786230288400,9.108288330078125,-0.0486941896378994,0.3136623203754425,0.05710222199559212
1684099786240307500,9.118307373046875,-0.044203564524650574,0.37182921171188354,0.06655111908912659
1684099786250325500,9.128325439453125,-0.04832048714160919,0.41735363006591797,0.07406747341156006
1684099786260344300,9.13834423828125,-0.053060382604599,0.4415937066078186,0.08377575874328613
1684099786270362400,9.1483623046875,-0.055984895676374435,0.4589451849460602,0.08835472911596298
1684099786280381400,9.15838134765625,-0.05613696202635765,0.4739321172237396,0.09616445004940033
1684099786290399200,9.168399169921875,-0.054190270602703094,0.48407697677612305,0.09915616363286972
1684099786300418300,9.178418212890625,-0.053481072187423706,0.5143129229545593,0.1044183075428009
1684099786310436600,9.1884365234375,-0.06199022755026817,0.5483396053314209,0.1109732910990715
1684099786320455400,9.198455322265625,-0.06288184970617294,0.5683181285858154,0.12732376158237457
1684099786330473500,9.208473388671875,-0.0636093020439148,0.5711125135421753,0.14467589557170868
1684099786340491300,9.2184912109375,-0.06415844708681107,0.543418824672699,0.15582895278930664
1684099786350510300,9.22851025390625,-0.05865256488323212,0.4755849838256836,0.160884290933609
1684099786360528400,9.2385283203125,-0.05354754999279976,0.3959146738052368,0.15224340558052063
1684099786370547200,9.248547119140625,-0.04633690044283867,0.31499916315078735,0.1220407485961914
1684099786380565500,9.2585654296875,-0.039266474545001984,0.23903781175613403,0.09549196064472198
1684099786390584600,9.26858447265625,-0.029257753863930702,0.1893312931060791,0.072289377450943
1684099786400602400,9.278602294921875,-0.023012107238173485,0.15499141812324524,0.06291557848453522
1684099786410621400,9.288621337890625,-0.026209037750959396,0.13825872540473938,0.06419109553098679
1684099786420639200,9.29863916015625,-0.029280727729201317,0.12500284612178802,0.06267203390598297
1684099786430658300,9.308658203125,-0.027812456712126732,0.11863954365253448,0.05954214930534363
1684099786440676400,9.31867626953125,-0.020912205800414085,0.10207867622375488,0.054541800171136856
1684099786450694400,9.3286943359375,-0.013372649438679218,0.088499516248703,0.039419010281562805
1684099786460713500,9.33871337890625,-0.012338544242084026,0.07247474044561386,0.03870421648025513
1684099786470731500,9.3487314453125,-0.011435302905738354,0.0644516572356224,0.03415203094482422
1684099786480750300,9.358750244140625,-0.010633958503603935,0.06011763587594032,0.03248170018196106
1684099786490768400,9.368768310546875,-0.01239578053355217,0.04789336025714874,0.02893836796283722
1684099786500787500,9.378787353515625,-0.00791554432362318,0.03657625615596771,0.020593618974089622
1684099786510805200,9.38880517578125,-0.003801704151555896,0.023450450971722603,0.008756808005273342
1684099786520824300,9.39882421875,0.0008084939909167588,0.009011857211589813,0.005110407713800669
1684099786530842400,9.40884228515625,0.002766786376014352,-0.00341360317543149,0.0035877423360943794
1684099786540861400,9.418861328125,0.0012173594441264868,-0.009400122798979282,-0.0025471155531704426
1684099786550879500,9.42887939453125,-0.000804154435172677,-0.013294817879796028,-0.00644695432856679
1684099786560897300,9.438897216796875,-0.004973066970705986,-0.019343655556440353,-0.009646208956837654
1684099786570916400,9.448916259765625,-0.013067787513136864,-0.03260272741317749,-0.016024140641093254
1684099786580934400,9.458934326171875,-0.026259224861860275,-0.049785442650318146,-0.026503946632146835
1684099786590953500,9.468953369140625,-0.05014168098568916,-0.08328354358673096,-0.04691594839096069
1684099786600971500,9.478971435546875,-0.07265577465295792,-0.13480424880981445,-0.07486582547426224
1684099786610990300,9.488990234375,-0.09846166521310806,-0.21613158285617828,-0.11515415459871292
1684099786621008400,9.49900830078125,-0.14003972709178925,-0.3320530951023102,-0.1719050407409668
1684099786631027500,9.50902734375,-0.18868009746074677,-0.49032068252563477,-0.2402801215648651
1684099786641045200,9.519045166015625,-0.24618253111839294,-0.7022669911384583,-0.3268304765224457
1684099786651064300,9.529064208984375,-0.307851105928421,-0.9858247637748718,-0.40896153450012207
1684099786661082400,9.539082275390625,-0.3712676167488098,-1.3379223346710205,-0.4847758710384369
1684099786671100400,9.549100341796875,-0.42673826217651367,-1.8039299249649048,-0.5332300662994385
1684099786681119500,9.559119384765625,-0.47065991163253784,-2.37336802482605,-0.5311248302459717
1684099786691137300,9.56913720703125,-0.49907946586608887,-2.998373508453369,-0.4924083352088928
1684099786701156000,9.579156005859375,-0.47270911931991577,-3.5525898933410645,-0.4515005946159363
1684099786711174000,9.589173828125,-0.39031052589416504,-3.8749547004699707,-0.4602911174297333
1684099786721193000,9.59919287109375,-0.26789912581443787,-3.96825909614563,-0.5208351612091064
1684099786731211000,9.6092109375,-0.1533362865447998,-3.9133527278900146,-0.6162639856338501
1684099786741230000,9.61922998046875,-0.02016252651810646,-3.797060966491699,-0.7218183875083923
1684099786751248100,9.629248046875,0.17421118915081024,-3.69096302986145,-0.8234403133392334
1684099786761267000,9.639266845703125,0.4643617868423462,-3.614398717880249,-0.9224952459335327
1684099786771285000,9.649284912109374,0.8314787149429321,-3.5731027126312256,-0.9729281663894653
1684099786781303000,9.659302978515624,1.1909509897232056,-3.6426451206207275,-0.9329413771629333
1684099786791322000,9.669322021484374,1.4829771518707275,-3.8986093997955322,-0.834601879119873
1684099786801340200,9.679340087890624,1.6142005920410156,-4.262294769287109,-0.6809854507446289
1684099786811359200,9.689359130859375,1.6930441856384277,-4.639791965484619,-0.5340593457221985
1684099786821377000,9.699376953125,1.7038923501968384,-4.907548427581787,-0.39994022250175476
1684099786831396000,9.70939599609375,1.6274323463439941,-4.817788600921631,-0.23070435225963593
1684099786841414000,9.719413818359374,1.4459840059280396,-4.252007484436035,-0.014235174283385277
1684099786851433000,9.729432861328124,1.1913655996322632,-3.3155016899108887,0.2147112637758255
1684099786861451300,9.739451171875,0.9743654131889343,-2.4450130462646484,0.32488542795181274
1684099786871470000,9.749469970703124,0.8621971011161804,-1.8380675315856934,0.23809662461280823
1684099786881488100,9.759488037109374,0.9338518381118774,-1.5374493598937988,-0.012343046255409718
1684099786891506000,9.769505859375,1.0710870027542114,-1.3185951709747314,-0.25215786695480347
1684099786901525000,9.77952490234375,1.1088436841964722,-0.9448617100715637,-0.3385569453239441
1684099786911543000,9.78954296875,1.0212558507919312,-0.4885987639427185,-0.30767354369163513
1684099786921561900,9.799561767578124,0.8385704755783081,-0.06627629697322845,-0.2458415925502777
1684099786931580200,9.809580078125,0.6423306465148926,0.31679174304008484,-0.2142636924982071
1684099786941599200,9.81959912109375,0.4849168360233307,0.6298481822013855,-0.21886803209781647
1684099786951617000,9.829616943359374,0.3867737054824829,0.8270919919013977,-0.23366180062294006
1684099786961636000,9.839635986328124,0.3445703387260437,0.898725152015686,-0.29165586829185486
1684099786971654000,9.84965380859375,0.32076355814933777,0.9573948383331299,-0.43445006012916565
1684099786981672000,9.859671875,0.2610251009464264,1.1637897491455078,-0.6766267418861389
1684099786991691000,9.86969091796875,0.1558801829814911,1.5763050317764282,-1.0252305269241333
1684099787001709000,9.879708984375,0.019813964143395424,2.050130844116211,-1.4261350631713867
1684099787011728100,9.88972802734375,-0.09982670843601227,2.313328504562378,-1.7073915004730225
1684099787021746200,9.89974609375,-0.18088506162166595,2.212068557739258,-1.767225742340088
1684099787031765000,9.909764892578124,-0.24297429621219635,1.7862695455551147,-1.6083970069885254
1684099787041783000,9.919782958984374,-0.23943868279457092,1.1193153858184814,-1.2868365049362183
1684099787051802000,9.929802001953124,-0.1271878182888031,0.40009766817092896,-0.8921309113502502
1684099787061820000,9.93981982421875,0.0996549054980278,-0.19931119680404663,-0.5125777125358582
1684099787071839000,9.9498388671875,0.3524545133113861,-0.6513615250587463,-0.2335214912891388
1684099787081857000,9.95985693359375,0.5374398231506348,-1.0001190900802612,-0.06967715919017792
1684099787091876000,9.9698759765625,0.6239795684814453,-1.2214057445526123,0.013402524404227734
1684099787101894100,9.97989404296875,0.6202746033668518,-1.3279402256011963,0.05735906586050987
1684099787111912000,9.989911865234374,0.5936968326568604,-1.336454153060913,0.10094005614519119
1684099787121931000,9.999930908203124,0.5955016613006592,-1.263461709022522,0.17196790874004364
1684099787131949000,10.009948974609374,0.588620126247406,-1.097178339958191,0.29617491364479065
1684099787141968100,10.019968017578124,0.5633999705314636,-0.849894642829895,0.42197278141975403
1684099787151986200,10.029986083984374,0.5473679900169373,-0.5310847163200378,0.4926743805408478
1684099787162005000,10.0400048828125,0.5511329174041748,-0.22744542360305786,0.4344553053379059
1684099787172023000,10.05002294921875,0.5448605418205261,-0.014611504971981049,0.2613435685634613
1684099787182042000,10.0600419921875,0.4739763140678406,0.11182206869125366,0.04338968172669411
1684099787192060000,10.070059814453124,0.37408164143562317,0.18572865426540375,-0.18455396592617035
1684099787202079000,10.080078857421874,0.285329669713974,0.23842941224575043,-0.3919210135936737
1684099787212097300,10.09009716796875,0.18926645815372467,0.28300148248672485,-0.5831427574157715
1684099787222115000,10.100114990234376,0.07901877909898758,0.3078559637069702,-0.7539216876029968
1684099787232134100,10.110134033203124,-0.017428649589419365,0.31097978353500366,-0.9046127200126648
1684099787242152000,10.12015185546875,-0.09137051552534103,0.25411996245384216,-1.006661295890808
1684099787252171000,10.1301708984375,-0.11818493902683258,0.13114294409751892,-1.0249665975570679
1684099787262189000,10.14018896484375,-0.06220928952097893,0.019973546266555786,-0.9173306822776794
1684099787272208000,10.150207763671874,0.03611735627055168,-0.02392282336950302,-0.6930546164512634
1684099787282226200,10.16022607421875,0.13839232921600342,0.03180888295173645,-0.4159281551837921
1684099787292245200,10.170245361328124,0.22080402076244354,0.14760035276412964,-0.1632014364004135
1684099787302263000,10.180262939453126,0.27213430404663086,0.24672825634479523,-0.002900453982874751
1684099787312282000,10.1902822265625,0.28581544756889343,0.30491992831230164,0.0610588937997818
1684099787322300000,10.2002998046875,0.2611745595932007,0.29765722155570984,0.046599529683589935
1684099787332318000,10.21031787109375,0.20611339807510376,0.18473422527313232,-0.005199122708290815
1684099787342337000,10.2203369140625,0.12584225833415985,0.0034240921959280968,-0.04488261789083481
1684099787352355000,10.23035498046875,0.05830974131822586,-0.1450148969888687,-0.04670805484056473
1684099787362374100,10.2403740234375,0.042871665209531784,-0.182559072971344,-0.010567627847194672
1684099787372392000,10.250391845703126,0.04947090893983841,-0.14674758911132812,0.04717143625020981
1684099787382411000,10.260410888671874,0.053714923560619354,-0.11053073406219482,0.10945798456668854
1684099787392429000,10.270428955078126,0.06420452892780304,-0.11975690722465515,0.1398082673549652
1684099787402448000,10.28044775390625,0.09121350944042206,-0.18839296698570251,0.14462032914161682
1684099787412466200,10.290466064453126,0.12526638805866241,-0.31784164905548096,0.13029338419437408
1684099787422485000,10.300485107421874,0.14940127730369568,-0.47694501280784607,0.10841445624828339
1684099787432503000,10.3105029296875,0.16166406869888306,-0.6030364036560059,0.08746469765901566
1684099787442521000,10.32052099609375,0.1659778654575348,-0.6497077345848083,0.056660979986190796
1684099787452540200,10.3305400390625,0.16916429996490479,-0.6212418079376221,0.016690991818904877
1684099787462558000,10.340557861328126,0.15499521791934967,-0.5586506128311157,-0.026026643812656403
1684099787472577000,10.350576904296876,0.1256769746541977,-0.5104635953903198,-0.060214076191186905
1684099787482595000,10.360594970703126,0.09465327113866806,-0.4958787262439728,-0.07385692000389099
1684099787492614100,10.3706142578125,0.06706734001636505,-0.4575479030609131,-0.08854004740715027
1684099787502632200,10.380632080078126,0.030486958101391792,-0.3399525582790375,-0.10564233362674713
1684099787512651000,10.390651123046876,-0.014734513126313686,-0.17621125280857086,-0.13519397377967834
1684099787522669000,10.4006689453125,-0.060658328235149384,-0.01899820566177368,-0.1739054173231125
1684099787532688100,10.410688232421874,-0.10718318074941635,0.11770670861005783,-0.23391686379909515
1684099787542706000,10.420705810546876,-0.14859719574451447,0.2154684215784073,-0.30023011565208435
1684099787552724200,10.43072412109375,-0.17740841209888458,0.2719423174858093,-0.3496529161930084
1684099787562743000,10.440742919921876,-0.18721070885658264,0.2717422842979431,-0.3357810378074646
1684099787572761000,10.450760986328126,-0.1698552668094635,0.2168332040309906,-0.26108554005622864
1684099787582780200,10.4607802734375,-0.12446381896734238,0.12659411132335663,-0.14965277910232544
1684099787592798000,10.4707978515625,-0.05405811965465546,0.04023619741201401,-0.01609734073281288
1684099787602817000,10.480817138671876,0.006962624844163656,-0.04160220921039581,0.1131349503993988
1684099787612835000,10.4908349609375,0.04561910033226013,-0.13053478300571442,0.21001297235488892
1684099787622854000,10.50085400390625,0.07292235642671585,-0.22255870699882507,0.2522113025188446
1684099787632872200,10.5108720703125,0.08840397000312805,-0.30269938707351685,0.25252610445022583
1684099787642891300,10.520891357421876,0.08954140543937683,-0.3578449487686157,0.24507886171340942
1684099787652909000,10.530908935546876,0.08900805562734604,-0.3782210648059845,0.24794425070285797
1684099787662927000,10.540927001953126,0.0867033526301384,-0.35124191641807556,0.2577361762523651
1684099787672946000,10.55094580078125,0.06640023738145828,-0.3102797865867615,0.26353487372398376
1684099787682964000,10.5609638671875,0.026099953800439835,-0.27266448736190796,0.27036401629447937
1684099787692983000,10.570983154296876,-0.01991277001798153,-0.2200806438922882,0.2703551650047302
1684099787703001000,10.5810009765625,-0.05368511378765106,-0.12272719293832779,0.23758095502853394
1684099787713020200,10.591020263671876,-0.08323324471712112,0.03886072710156441,0.17477819323539734
1684099787723038000,10.601037841796876,-0.12181871384382248,0.2358132153749466,0.07506892085075378
1684099787733057000,10.61105712890625,-0.14454790949821472,0.39019763469696045,-0.038060471415519714
1684099787743074800,10.62107470703125,-0.1458856165409088,0.44856372475624084,-0.12892593443393707
1684099787753094000,10.631093994140626,-0.13668392598628998,0.3883889615535736,-0.17956610023975372
1684099787763112200,10.6411123046875,-0.13026836514472961,0.22042658925056458,-0.17990271747112274
1684099787773130000,10.6511298828125,-0.10991330444812775,0.010557844303548336,-0.14091961085796356
1684099787783149000,10.661149169921876,-0.10292863100767136,-0.14766880869865417,-0.09763845056295395
1684099787793167000,10.6711669921875,-0.10626538097858429,-0.20939314365386963,-0.08016634732484818
1684099787803186000,10.68118603515625,-0.11685410887002945,-0.14627541601657867,-0.08444950729608536
1684099787813204000,10.691203857421876,-0.13031595945358276,0.013554874807596207,-0.09779521077871323
1684099787823223000,10.70122314453125,-0.15135332942008972,0.19977055490016937,-0.08312918245792389
1684099787833241000,10.711240966796876,-0.16021119058132172,0.29207277297973633,-0.017975108698010445
1684099787843260200,10.72126025390625,-0.15527530014514923,0.2506757974624634,0.09305180609226227
1684099787853278000,10.73127783203125,-0.1391187459230423,0.13772988319396973,0.21296685934066772
1684099787863297000,10.741297119140626,-0.14487329125404358,0.026330117136240005,0.3144817650318146
1684099787873315000,10.751315185546876,-0.16861151158809662,-0.04085041582584381,0.37231045961380005
1684099787883332900,10.761332763671875,-0.19908978044986725,-0.03758831322193146,0.3807430863380432
1684099787893352000,10.77135205078125,-0.2473950982093811,0.04274610057473183,0.3386043310165405
1684099787903370000,10.781369873046875,-0.32707154750823975,0.15461057424545288,0.2939034402370453
1684099787913389000,10.79138916015625,-0.40665149688720703,0.2286720722913742,0.2792196273803711
1684099787923407000,10.801406982421875,-0.4512951374053955,0.24207575619220734,0.306983083486557
1684099787933426000,10.811426025390626,-0.4485715329647064,0.20251204073429108,0.3677500784397125
1684099787943444000,10.82144384765625,-0.4319307804107666,0.11649060994386673,0.4284922480583191
1684099787953463000,10.831463134765626,-0.4189523756504059,0.00973785575479269,0.4568902850151062
1684099787963480800,10.841480712890625,-0.40937164425849915,-0.11308899521827698,0.4341849684715271
1684099787973500000,10.8515,-0.3950088322162628,-0.2262350171804428,0.3767022490501404
1684099787983518200,10.861518310546876,-0.38792428374290466,-0.300621896982193,0.33499422669410706
1684099787993537000,10.871537109375,-0.3825276494026184,-0.3137425482273102,0.32238730788230896
1684099788003555000,10.88155517578125,-0.37736353278160095,-0.2480224221944809,0.34129977226257324
1684099788013572900,10.89157275390625,-0.35969799757003784,-0.12683919072151184,0.3704158663749695
1684099788023592000,10.901592041015626,-0.3236864507198334,-0.009589532390236855,0.3915432393550873
1684099788033610000,10.91160986328125,-0.2898506224155426,0.032809097319841385,0.39200055599212646
1684099788043629000,10.921629150390626,-0.2864905297756195,-0.03171823173761368,0.3792693316936493
1684099788053647000,10.931647216796875,-0.2962088882923126,-0.15653841197490692,0.3689247667789459
1684099788063666200,10.941666259765626,-0.2970448434352875,-0.267920583486557,0.3556172251701355
1684099788073684000,10.95168408203125,-0.2988264262676239,-0.3225700855255127,0.3483319580554962
1684099788083703000,10.961703125,-0.31807976961135864,-0.33572396636009216,0.3496880531311035
1684099788093720800,10.971720947265625,-0.35742971301078796,-0.34721025824546814,0.3732014298439026
1684099788103740000,10.981739990234376,-0.4096417725086212,-0.35896891355514526,0.41186121106147766
1684099788113758200,10.99175830078125,-0.46411317586898804,-0.3410581052303314,0.4557088613510132
1684099788123776000,11.00177587890625,-0.5112317204475403,-0.2323489487171173,0.4774405360221863
1684099788133795000,11.011795166015625,-0.5395799875259399,0.012654894031584263,0.46286118030548096
1684099788143812900,11.021812744140625,-0.5604485273361206,0.3544047772884369,0.422098845243454
1684099788153832000,11.03183203125,-0.600233793258667,0.6836252212524414,0.3691263496875763
1684099788163850000,11.04185009765625,-0.6423519253730774,0.8661047220230103,0.31181326508522034
1684099788173868800,11.051868896484375,-0.6541815400123596,0.8441535234451294,0.24859513342380524
1684099788183887000,11.06188720703125,-0.6328679919242859,0.7063754200935364,0.20178741216659546
1684099788193906200,11.07190625,-0.6041334271430969,0.5534951090812683,0.19300515949726105
1684099788203924000,11.081924072265625,-0.5624562501907349,0.4089943766593933,0.22900763154029846
1684099788213943000,11.091943115234375,-0.5060625672340393,0.24460677802562714,0.2844582200050354
1684099788223961000,11.101961181640625,-0.4407314956188202,0.04339909553527832,0.34464219212532043
1684099788233979000,11.111978759765625,-0.37892085313796997,-0.15308667719364166,0.40781205892562866
1684099788243998000,11.121998046875,-0.31765803694725037,-0.2959069311618805,0.5011379718780518
1684099788254016000,11.13201611328125,-0.27099841833114624,-0.3823924660682678,0.5919122099876404
1684099788264035000,11.14203515625,-0.23055434226989746,-0.44029784202575684,0.6320977210998535
1684099788274053000,11.15205322265625,-0.20024198293685913,-0.4736833870410919,0.6173630356788635
1684099788284072000,11.162072021484375,-0.18602469563484192,-0.4828944504261017,0.5731422901153564
1684099788294090000,11.172090087890625,-0.19515946507453918,-0.478732705116272,0.5522611737251282
1684099788304109000,11.182109130859375,-0.21072643995285034,-0.43955546617507935,0.5602176189422607
1684099788314126800,11.192126953125,-0.22994162142276764,-0.3539201319217682,0.5820304155349731
1684099788324146000,11.20214599609375,-0.25135210156440735,-0.22840189933776855,0.5864941477775574
1684099788334164000,11.2121640625,-0.25282034277915955,-0.09123370796442032,0.5584415793418884
1684099788344182000,11.22218212890625,-0.9167174100875854,1.4984146356582642,1.2537399530410767
1684099788354201000,11.232201171875,-2.0980618000030518,3.7943127155303955,2.2947044372558594
1684099788364219000,11.242218994140625,-1.0871700048446655,2.4668116569519043,1.3336288928985596
1684099788374238000,11.252238037109375,-0.6154705286026001,2.17018723487854,0.7979709506034851
1684099788384256000,11.262256103515625,-0.7711983323097229,3.071380615234375,0.8879855275154114
1684099788394275000,11.272275146484375,-0.4634426534175873,3.256667137145996,0.635360598564148
1684099788404293000,11.282293212890625,-0.2963828444480896,3.662950038909912,0.5431848168373108
1684099788414312200,11.292312255859375,-0.1799718588590622,3.6847760677337646,0.4116409718990326
1684099788424330000,11.302330078125,-0.10428853332996368,3.4770455360412598,0.3366365134716034
1684099788434349000,11.31234912109375,-0.09120511263608932,3.038325548171997,0.30353641510009766
1684099788444366800,11.322366943359375,-0.12767204642295837,2.527876615524292,0.30440327525138855
1684099788454385200,11.33238525390625,-0.1971326321363449,2.1317970752716064,0.32698020339012146
1684099788464404200,11.342404296875,-0.31770938634872437,1.8971552848815918,0.3162367641925812
1684099788474422000,11.352422119140625,-0.45981261134147644,1.8419276475906372,0.3162389099597931
1684099788484441000,11.362441162109375,-0.5464127659797668,1.8893787860870361,0.30184638500213623
1684099788494459000,11.372458984375,-0.5782363414764404,1.9670370817184448,0.2773132026195526
1684099788504478000,11.38247802734375,-0.5768818855285645,2.0303261280059814,0.22364680469036102
1684099788514496000,11.39249609375,-0.5475144982337952,2.040982484817505,0.1455894559621811
1684099788524514800,11.402514892578125,-0.49439218640327454,2.0031490325927734,0.06145726516842842
1684099788534533000,11.412533203125,-0.43895140290260315,1.9092662334442139,-0.011397769674658775
1684099788544552200,11.42255224609375,-0.3864959180355072,1.7600582838058472,-0.027770884335041046
1684099788554570000,11.432570068359375,-0.3465512692928314,1.5795629024505615,-0.004418785218149424
1684099788564589000,11.442589111328125,-0.32056787610054016,1.412452220916748,0.046429481357336044
1684099788574606800,11.45260693359375,-0.29810211062431335,1.3035888671875,0.08829893171787262
1684099788584625000,11.462625,-0.27201512455940247,1.271560549736023,0.10148743540048599
1684099788594644000,11.47264404296875,-0.2275046706199646,1.2901322841644287,0.09761044383049011
1684099788604662000,11.482662109375,-0.17294183373451233,1.3190683126449585,0.08134785294532776
1684099788614681000,11.49268115234375,-0.11795144528150558,1.333626627922058,0.06772558391094208
1684099788624699100,11.50269921875,-0.07437334209680557,1.3321964740753174,0.06530451029539108
1684099788634718000,11.512718017578125,-0.05200158432126045,1.3068302869796753,0.07250994443893433
1684099788644736000,11.522736083984375,-0.05335473641753197,1.2883445024490356,0.08160810172557831
1684099788654755000,11.532755126953125,-0.08129850775003433,1.2929372787475586,0.07516944408416748
1684099788664772900,11.54277294921875,-0.11973778158426285,1.3176116943359375,0.06548379361629486
1684099788674792000,11.5527919921875,-0.1479157656431198,1.343585729598999,0.05351368710398674
1684099788684810000,11.56281005859375,-0.15072593092918396,1.3276437520980835,0.047530628740787506
1684099788694828000,11.572828125,-0.13473425805568695,1.2564189434051514,0.055223334580659866
1684099788704847000,11.58284716796875,-0.10559049248695374,1.1341044902801514,0.06335236877202988
1684099788714865000,11.592864990234375,-0.07913069427013397,0.9817630648612976,0.07200425118207932
1684099788724884000,11.602884033203125,-0.06128991022706032,0.8560094237327576,0.04747174307703972
1684099788734902000,11.612902099609375,-0.07049223780632019,0.7744395136833191,0.004085478372871876
1684099788744921000,11.622921142578125,-0.08165034651756287,0.631518542766571,-0.0011095501249656081
1684099788754939100,11.632939208984375,-0.06165149807929993,0.41332870721817017,0.04184754565358162
1684099788764958000,11.6429580078125,-0.034926943480968475,0.1952826827764511,0.03982594236731529
1684099788774976000,11.65297607421875,-0.015859270468354225,0.0483698770403862,0.0013635647483170033
1684099788784994000,11.662994140625,-0.00902746245265007,-0.03468053415417671,-0.011833196505904198
1684099788795012900,11.673012939453125,-0.01749183051288128,-0.047787804156541824,-0.000662495382130146
1684099788805031200,11.68303125,-0.013364463113248348,-0.04140527546405792,0.0006256756605580449
1684099788815050200,11.69305029296875,-0.002634251257404685,-0.06665198504924774,-0.0013960658106952906
1684099788825068000,11.703068115234375,0.007594151422381401,-0.10112021863460541,-0.003001685719937086
1684099788835087000,11.713087158203125,0.008202179335057735,-0.12180174142122269,-0.003460344858467579
1684099788845105000,11.72310498046875,0.009687423706054688,-0.13113026320934296,-0.005922703538089991
1684099788855124000,11.7331240234375,0.01248410064727068,-0.13283424079418182,-0.004293287172913551
1684099788865142000,11.74314208984375,0.008598548360168934,-0.1216265857219696,-0.007256320212036371
1684099788875160800,11.753160888671875,-0.00039542964077554643,-0.10011658072471619,-0.005302724428474903
1684099788885179100,11.76317919921875,-0.012613213621079922,-0.06865479797124863,-0.005428958218544722
1684099788895198200,11.7731982421875,-0.017377320677042007,-0.05227889120578766,-0.012192624621093273
1684099788905216000,11.783216064453125,-0.0190226212143898,-0.07900877296924591,-0.0203312449157238
1684099788915234000,11.793234130859375,-0.027573347091674805,-0.1489783078432083,-0.03576884791254997
1684099788925252900,11.8032529296875,-0.041418321430683136,-0.24828705191612244,-0.047578636556863785
1684099788935271000,11.81327099609375,-0.061375942081213,-0.37676554918289185,-0.05918700620532036
1684099788945290000,11.8232900390625,-0.09233332425355911,-0.5322046875953674,-0.07057441025972366
1684099788955308000,11.83330810546875,-0.1362682580947876,-0.7162522673606873,-0.09052318334579468
1684099788965327000,11.8433271484375,-0.19001804292201996,-0.9427016377449036,-0.11467618495225906
1684099788975345000,11.853344970703125,-0.25505906343460083,-1.2020186185836792,-0.1421307474374771
1684099788985364000,11.863364013671875,-0.322253555059433,-1.4992153644561768,-0.17618805170059204
1684099788995382000,11.873382080078125,-0.3793882131576538,-1.8256843090057373,-0.2207733690738678
1684099789005400800,11.88340087890625,-0.4060653746128082,-2.1669912338256836,-0.2606070637702942
1684099789015419000,11.8934189453125,-0.39741992950439453,-2.508080005645752,-0.29778802394866943
1684099789025437200,11.903437255859375,-0.367867112159729,-2.816403865814209,-0.3383069634437561
1684099789035456000,11.9134560546875,-0.3274086117744446,-3.083289623260498,-0.380675733089447
1684099789045473000,11.92347314453125,-0.2573200762271881,-3.2906196117401123,-0.4332433342933655
1684099789055491800,11.933491943359375,-0.17620596289634705,-3.4205896854400635,-0.4978528618812561
1684099789065510100,11.94351025390625,-0.09086150676012039,-3.503331422805786,-0.5768129229545593
1684099789075529200,11.953529296875,-0.012539359740912914,-3.5491371154785156,-0.676253080368042
1684099789085547000,11.963547119140625,0.08524365723133087,-3.5535387992858887,-0.8019958138465881
1684099789095566000,11.973566162109375,0.24091556668281555,-3.5187013149261475,-0.9457796216011047
1684099789105583900,11.983583984375,0.47183507680892944,-3.528362512588501,-1.0650038719177246
1684099789115603000,11.99360302734375,0.7755246758460999,-3.551666736602783,-1.0851211547851562
1684099789125621000,12.00362109375,1.0877244472503662,-3.681281566619873,-1.010953426361084
1684099789135639800,12.013639892578125,1.328861117362976,-3.910243511199951,-0.841157078742981
1684099789145658000,12.023658203125,1.4840277433395386,-4.116796016693115,-0.5947486162185669
1684099789155676200,12.03367626953125,1.5526617765426636,-4.162609100341797,-0.2999440133571625
1684099789165695000,12.043695068359375,1.461507797241211,-3.7673943042755127,0.08871052414178848
1684099789175713000,12.053713134765625,1.2108107805252075,-2.990811824798584,0.4923008680343628
1684099789185732000,12.063732177734375,0.9610819220542908,-2.0749459266662598,0.7659888863563538
1684099789195750000,12.07375,0.8216468691825867,-1.1854666471481323,0.823560357093811
1684099789205769000,12.08376904296875,0.7969156503677368,-0.4588622450828552,0.6401327848434448
1684099789215787000,12.093787109375,0.8005150556564331,0.0009547211229801178,0.3256707489490509
1684099789225806000,12.10380615234375,0.7127732038497925,0.3187422752380371,0.023791611194610596
1684099789235824000,12.11382421875,0.5373074412345886,0.5946161150932312,-0.21095521748065948
1684099789245843000,12.123843017578125,0.3927830159664154,0.8245795369148254,-0.3851637840270996
1684099789255861000,12.133861083984375,0.3302432894706726,0.9660155773162842,-0.5162569284439087
1684099789265879000,12.143879150390624,0.3172880709171295,0.9719642400741577,-0.6184307336807251
1684099789275897900,12.15389794921875,0.31250661611557007,0.8342427611351013,-0.7007911205291748
1684099789285916200,12.163916259765625,0.2862827479839325,0.6052937507629395,-0.7912757396697998
1684099789295935000,12.17393505859375,0.23733459413051605,0.4189549386501312,-0.9089141488075256
1684099789305953000,12.183953125,0.14746010303497314,0.3826139569282532,-1.0217570066452026
1684099789315972000,12.19397216796875,0.048835813999176025,0.4549580216407776,-1.0936552286148071
1684099789325990000,12.203989990234374,0.0034611427690833807,0.5281805992126465,-1.1184191703796387
1684099789336009000,12.214009033203125,0.04538704454898834,0.5537545084953308,-1.0712602138519287
1684099789346027000,12.224027099609375,0.08691956847906113,0.5597386360168457,-0.9475529789924622
1684099789356046000,12.234046142578125,0.09693683683872223,0.5974273085594177,-0.7819428443908691
1684099789366064000,12.244064208984375,0.10744380950927734,0.6795709133148193,-0.6390016674995422
1684099789376082000,12.25408203125,0.14595842361450195,0.7545738220214844,-0.5547569990158081
1684099789386101000,12.26410107421875,0.20503772795200348,0.6937578916549683,-0.5240440964698792
1684099789396119000,12.274119140625,0.2631254196166992,0.4805155098438263,-0.5015245079994202
1684099789406137900,12.284137939453124,0.3294826149940491,0.1845080852508545,-0.4647909998893738
1684099789416156200,12.29415625,0.4021913409233093,-0.08771981298923492,-0.4011971652507782
1684099789426176000,12.304176025390625,0.4781945049762726,-0.2685798704624176,-0.3250054717063904
1684099789436194000,12.314194091796875,0.5362756252288818,-0.3836915194988251,-0.2573094367980957
1684099789446213000,12.324213134765625,0.5589777231216431,-0.45793381333351135,-0.19922427833080292
1684099789456231200,12.334231201171875,0.5587340593338013,-0.47352874279022217,-0.15092486143112183
1684099789466249000,12.3442490234375,0.5469040274620056,-0.40065398812294006,-0.10290859639644623
1684099789476268000,12.35426806640625,0.5225553512573242,-0.26494085788726807,-0.06902460753917694
1684099789486285800,12.364285888671875,0.48371073603630066,-0.12588338553905487,-0.06398271024227142
1684099789496305000,12.374304931640625,0.438050240278244,-0.043789029121398926,-0.08818482607603073
1684099789506323200,12.3843232421875,0.379543274641037,-0.008625981397926807,-0.16051946580410004
1684099789516342000,12.394342041015625,0.31985339522361755,0.00898054987192154,-0.279211163520813
1684099789526360000,12.404360107421875,0.2586140036582947,0.03203633800148964,-0.4150632619857788
1684099789536379100,12.414379150390625,0.20529955625534058,0.06455308943986893,-0.5171737670898438
