time,seconds_elapsed,z,y,x
1684108175842729200,0.015729248046875,-0.17303557693958282,-0.03773367032408714,0.3943098187446594
1684108175852747300,0.025747314453125,-0.12137555330991745,-0.04423478990793228,0.45206519961357117
1684108175862764300,0.035764404296875,-0.06790407001972198,-0.05228818953037262,0.44396546483039856
1684108175872782300,0.0457822265625,-0.04716940224170685,-0.07526355236768723,0.37679359316825867
1684108175882799400,0.05579931640625,-0.06203277036547661,-0.14710897207260132,0.2833310067653656
1684108175892816400,0.06581640625,-0.077701136469841,-0.24678853154182434,0.1998986154794693
1684108175902834200,0.075834228515625,-0.08183196932077408,-0.34442320466041565,0.11668069660663605
1684108175912851500,0.0858515625,-0.08109114319086075,-0.4332287609577179,0.04684460908174515
1684108175922869200,0.095869140625,-0.10353227704763412,-0.43967390060424805,0.025229593738913536
1684108175932886300,0.10588623046875,-0.11559361964464188,-0.29895228147506714,0.06548286974430084
1684108175942904300,0.115904296875,-0.14369316399097443,-0.09609612822532654,0.1839863508939743
1684108175952921300,0.12592138671875,-0.209944486618042,0.12116436660289764,0.3491538166999817
1684108175962939100,0.135939208984375,-0.3513681888580322,0.3624739348888397,0.5690742135047913
1684108175972956200,0.1459560546875,-0.5513122081756592,0.5849089026451111,0.8290970325469971
1684108175982973400,0.155973388671875,-0.767850399017334,0.7288119792938232,1.051118016242981
1684108175992991200,0.1659912109375,-0.9616599678993225,0.709975004196167,1.1611766815185547
1684108176003008300,0.17600830078125,-1.0735079050064087,0.46781694889068604,1.1324197053909302
1684108176013026300,0.1860263671875,-1.048891544342041,0.10270041972398758,0.9548448324203491
1684108176023043000,0.19604296875,-0.9366059899330139,-0.13896013796329498,0.6994905471801758
1684108176033061400,0.206061279296875,-0.7937347292900085,-0.2877781391143799,0.4846073091030121
1684108176043078100,0.216078125,-0.6389493942260742,-0.31250983476638794,0.36122065782546997
1684108176053095400,0.226095458984375,-0.4866344630718231,-0.13310357928276062,0.3282184898853302
1684108176063113200,0.23611328125,-0.2850744426250458,0.1011323556303978,0.6353691220283508
1684108176073130500,0.246130615234375,-0.15621250867843628,-0.00025197258219122887,1.025294542312622
1684108176083148300,0.256148193359375,-0.05876690521836281,-0.291836678981781,1.48759126663208
1684108176093165000,0.2661650390625,0.05150856822729111,-0.6343221664428711,1.9939717054367065
1684108176103183400,0.276183349609375,0.1353914886713028,-0.4696812629699707,2.4512815475463867
1684108176113200000,0.2862001953125,0.2915695309638977,0.029880255460739136,2.6943771839141846
1684108176123218200,0.29621826171875,0.4464917480945587,0.7425568103790283,2.553611993789673
1684108176133235000,0.30623486328125,0.5889200568199158,1.2582796812057495,2.057319164276123
1684108176143252200,0.316252197265625,0.6813051104545593,1.4574215412139893,1.4240936040878296
1684108176153270000,0.32627001953125,0.5991455912590027,1.2992349863052368,0.8495155572891235
1684108176163287000,0.336287109375,0.3818502724170685,1.1933424472808838,0.38937142491340637
1684108176173305000,0.34630517578125,0.17098626494407654,1.0219377279281616,-0.04651236534118652
1684108176183321900,0.35632177734375,0.021435128524899483,1.2620060443878174,-0.3611890971660614
1684108176193340200,0.366340087890625,-0.017177077010273933,1.5503836870193481,-0.634027898311615
1684108176203357000,0.37635693359375,-0.05235104262828827,1.8484238386154175,-0.9156747460365295
1684108176213375000,0.386375,-0.19708013534545898,2.2153806686401367,-1.1266623735427856
1684108176223392000,0.39639208984375,-0.36469683051109314,2.2764248847961426,-1.3394821882247925
1684108176233410000,0.40641015625,-0.6069715023040771,1.8030362129211426,-1.554850459098816
1684108176243427000,0.416427001953125,-1.009170413017273,0.946447491645813,-1.7751686573028564
1684108176253443800,0.42644384765625,-1.4976348876953125,0.1484040766954422,-1.7962346076965332
1684108176263462100,0.436462158203125,-1.8833719491958618,-0.3125195801258087,-1.5831252336502075
1684108176273479000,0.44647900390625,-1.8729116916656494,-0.5294037461280823,-1.1597291231155396
1684108176283497200,0.456497314453125,-1.4515599012374878,-0.459369033575058,-0.5799729824066162
1684108176293514000,0.466513916015625,-0.7376481890678406,-0.18094231188297272,0.13762548565864563
1684108176303532000,0.476531982421875,0.19490933418273926,0.2518559694290161,0.8964442610740662
1684108176313549000,0.486549072265625,1.0573561191558838,0.8076934814453125,1.51376473903656
1684108176323566800,0.49656689453125,1.4830116033554077,1.2520619630813599,1.875989556312561
1684108176333584100,0.506584228515625,1.3792409896850586,1.4352138042449951,1.9501901865005493
1684108176343601000,0.516600830078125,1.0981645584106445,1.42526376247406,1.7431973218917847
1684108176353619200,0.526619140625,0.9209974408149719,1.296785593032837,1.359060287475586
1684108176363636000,0.536635986328125,0.8525869846343994,1.251051902770996,0.9121111035346985
1684108176373654000,0.546654052734375,0.8065145015716553,1.3358683586120605,0.5240087509155273
1684108176383671000,0.556671142578125,0.7856462001800537,1.4570051431655884,0.25256234407424927
1684108176393688800,0.566688720703125,0.8789594769477844,1.5291579961776733,0.0639612227678299
1684108176403706000,0.5767060546875,1.0788472890853882,1.54949152469635,-0.09987245500087738
1684108176413724000,0.586723876953125,1.2392637729644775,1.4689445495605469,-0.21215006709098816
1684108176423741200,0.5967412109375,1.2630261182785034,1.3290735483169556,-0.2657616436481476
1684108176433758000,0.606758056640625,1.20138418674469,1.2012639045715332,-0.2939407527446747
1684108176443776300,0.6167763671875,1.105883002281189,1.1029354333877563,-0.3332125246524811
1684108176453793000,0.62679296875,0.928533136844635,0.9890905022621155,-0.42728325724601746
1684108176463810800,0.636810791015625,0.7627063393592834,0.7879547476768494,-0.6422245502471924
1684108176473828000,0.646828125,0.6615811586380005,0.49524760246276855,-0.9503311514854431
1684108176483846000,0.656845947265625,0.5858893394470215,0.20090225338935852,-1.2253042459487915
1684108176493863200,0.66686328125,0.5472137331962585,-0.01604711078107357,-1.4149255752563477
1684108176503881000,0.676880859375,0.5317391157150269,-0.20546096563339233,-1.4864401817321777
1684108176513898200,0.686898193359375,0.5339842438697815,-0.3221070468425751,-1.3977755308151245
1684108176523915000,0.6969150390625,0.5744855999946594,-0.3358577489852905,-1.209982991218567
1684108176533932800,0.706932861328125,0.6215470433235168,-0.29746463894844055,-0.983132541179657
1684108176543950000,0.7169501953125,0.6520183682441711,-0.23111706972122192,-0.7904824018478394
1684108176553967900,0.7269677734375,0.6701056361198425,-0.11086858063936234,-0.6644689440727234
1684108176563985200,0.736985107421875,0.6861519813537598,0.0101835448294878,-0.6416003704071045
1684108176574003000,0.7470029296875,0.6968662142753601,0.10917651653289795,-0.7171669602394104
1684108176584020200,0.757020263671875,0.6962467432022095,0.15951211750507355,-0.8478075265884399
1684108176594038000,0.7670380859375,0.6757737398147583,0.16486240923404694,-0.975034773349762
1684108176604055000,0.777054931640625,0.6301221251487732,0.16229619085788727,-1.0996712446212769
1684108176614073000,0.787072998046875,0.5762521624565125,0.17676648497581482,-1.1893947124481201
1684108176624089900,0.79708984375,0.5146809816360474,0.22214968502521515,-1.189628005027771
1684108176634107100,0.807107177734375,0.4755878448486328,0.30153486132621765,-1.0729471445083618
1684108176644125000,0.817125,0.4735497236251831,0.43922188878059387,-0.8225622773170471
1684108176654142200,0.82714208984375,0.506652295589447,0.6667173504829407,-0.48238396644592285
1684108176664160000,0.837159912109375,0.5339182615280151,1.013444423675537,-0.1418738067150116
1684108176674177000,0.847177001953125,0.5535823106765747,1.5033953189849854,0.09843245148658752
1684108176684195000,0.857195068359375,0.5670855641365051,2.0458555221557617,0.20408138632774353
1684108176694211800,0.8672119140625,0.570909321308136,2.4969449043273926,0.12586709856987
1684108176704230100,0.877230224609375,0.5686137080192566,2.750180721282959,-0.16383129358291626
1684108176714247000,0.887246826171875,0.5606304407119751,2.7751500606536865,-0.6276617050170898
1684108176724264000,0.897263916015625,0.551906406879425,2.573011875152588,-1.1196712255477905
1684108176734282000,0.907281982421875,0.5182711482048035,2.1981780529022217,-1.4655344486236572
1684108176744299000,0.917299072265625,0.44484853744506836,1.646530270576477,-1.6275008916854858
1684108176754317000,0.927317138671875,0.3476240336894989,1.087067723274231,-1.6533533334732056
1684108176764334000,0.937333984375,0.2306089997291565,0.6521511673927307,-1.6770224571228027
1684108176774352100,0.94735205078125,0.15003345906734467,0.35210996866226196,-1.8383734226226807
1684108176784369000,0.957368896484375,0.13761672377586365,0.11870522052049637,-2.0491409301757812
1684108176794387200,0.96738720703125,0.216739684343338,-0.032199885696172714,-2.16790771484375
1684108176804404000,0.977404052734375,0.30697742104530334,-0.16080233454704285,-2.119565010070801
1684108176814422000,0.987422119140625,0.3395063877105713,-0.28925883769989014,-1.900900959968567
1684108176824439000,0.99743896484375,0.33938735723495483,-0.4317866861820221,-1.573988914489746
1684108176834456000,1.0074560546875,0.3023103177547455,-0.5960469245910645,-1.1781293153762817
1684108176844474000,1.01747412109375,0.24539829790592194,-0.7691451907157898,-0.7694594860076904
1684108176854491000,1.027490966796875,0.1755061149597168,-0.9316071271896362,-0.4152035117149353
1684108176864509200,1.03750927734375,0.10071390122175217,-1.082558512687683,-0.15223097801208496
1684108176874526000,1.04752587890625,0.04537379369139671,-1.1850652694702148,-0.021732067689299583
1684108176884544300,1.057544189453125,0.049652159214019775,-1.1933447122573853,-0.003995414357632399
1684108176894561000,1.06756103515625,0.1338563859462738,-1.1620975732803345,-0.01682303473353386
1684108176904578800,1.077578857421875,0.2649019956588745,-1.1009676456451416,-0.012009638361632824
1684108176914596000,1.08759619140625,0.41405433416366577,-0.9705352187156677,0.007946043275296688
1684108176924613000,1.097613037109375,0.5308616757392883,-0.7937766909599304,0.02568722516298294
1684108176934631200,1.107631103515625,0.5745065808296204,-0.5635563135147095,0.08146445453166962
1684108176944648000,1.11764794921875,0.530088484287262,-0.34028756618499756,0.17548015713691711
1684108176954666200,1.127666259765625,0.4374920725822449,-0.14483481645584106,0.29856014251708984
1684108176964683000,1.13768310546875,0.3602798581123352,-0.022018350660800934,0.43658167123794556
1684108176974700800,1.14770068359375,0.30940550565719604,0.043621551245450974,0.6048222780227661
1684108176984718000,1.157718017578125,0.28515341877937317,0.1685088872909546,0.7831509709358215
1684108176994735900,1.16773583984375,0.2633790075778961,0.41240188479423523,0.9275680184364319
1684108177004753200,1.177753173828125,0.22307074069976807,0.7570644617080688,1.0074353218078613
1684108177014771000,1.18777099609375,0.15718834102153778,1.1511784791946411,1.0228904485702515
1684108177024788200,1.197788330078125,0.07850843667984009,1.5416399240493774,1.003551959991455
1684108177034805000,1.207804931640625,-0.023935338482260704,1.87703275680542,0.9596266746520996
1684108177044823000,1.217822998046875,-0.1842014491558075,2.145028829574585,0.8865479826927185
1684108177054840000,1.227840087890625,-0.43214812874794006,2.3370018005371094,0.7965018153190613
1684108177064857900,1.23785791015625,-0.7335577607154846,2.5460846424102783,0.7579661011695862
1684108177074875100,1.247875244140625,-1.012486457824707,2.8542165756225586,0.8534083366394043
1684108177084893000,1.257892822265625,-1.2052385807037354,3.1726810932159424,1.0479766130447388
1684108177094910000,1.267909912109375,-1.3080804347991943,3.513434886932373,1.2357341051101685
1684108177104928000,1.277927978515625,-1.389695167541504,3.949939250946045,1.3499728441238403
1684108177114945000,1.287945068359375,-1.4795743227005005,4.258745193481445,1.2619872093200684
1684108177124963800,1.2979638671875,-1.6097573041915894,4.228926658630371,0.8766326308250427
1684108177134980600,1.307980712890625,-1.8391438722610474,3.8932032585144043,0.2961347699165344
1684108177144997600,1.31799755859375,-2.1408448219299316,3.4716403484344482,-0.26892194151878357
1684108177155015700,1.328015625,-2.5046520233154297,3.2173845767974854,-0.6432139277458191
1684108177165032700,1.33803271484375,-2.8655591011047363,3.2364187240600586,-0.6927878856658936
1684108177175050800,1.34805078125,-3.2539114952087402,3.7028818130493164,-0.39430347084999084
1684108177185067800,1.35806787109375,-3.747070789337158,4.52756404876709,0.14989110827445984
1684108177195085800,1.3680859375,-4.211099147796631,5.554235935211182,0.8139446973800659
1684108177205102600,1.3781025390625,-4.508377552032471,6.561457633972168,1.5535355806350708
1684108177215120600,1.38812060546875,-4.6940741539001465,7.2083940505981445,2.298473358154297
1684108177225137700,1.3981376953125,-4.8344316482543945,7.319552898406982,2.8825838565826416
1684108177235154700,1.40815478515625,-4.904649257659912,6.928276538848877,3.164121627807617
1684108177245172700,1.4181728515625,-4.821128845214844,6.2950825691223145,3.1991212368011475
1684108177255189800,1.428189697265625,-4.656981468200684,5.411742210388184,3.115039825439453
1684108177265207800,1.438207763671875,-4.588454723358154,4.7236433029174805,3.0567030906677246
1684108177275224600,1.448224609375,-4.529594898223877,4.639961242675781,3.104675054550171
1684108177285242600,1.45824267578125,-4.567368507385254,4.317383766174316,3.1187820434570312
1684108177295259600,1.468259765625,-4.572076797485352,3.3933663368225098,2.776172637939453
1684108177305277700,1.478277587890625,-4.245572090148926,1.8527811765670776,1.9305224418640137
1684108177315294700,1.488294677734375,-3.5311124324798584,0.11106635630130768,0.8985147476196289
1684108177325311700,1.498311767578125,-2.727595329284668,-1.5737377405166626,0.04501427337527275
1684108177335329500,1.50832958984375,-2.122023344039917,-2.9705963134765625,-0.4578963816165924
1684108177345346800,1.518346923828125,-1.7540327310562134,-3.7206497192382812,-0.5983957052230835
1684108177355364600,1.528364501953125,-1.803744912147522,-3.5928523540496826,-0.45857709646224976
1684108177365381600,1.538381591796875,-2.2785725593566895,-2.7211296558380127,-0.2643844485282898
1684108177375399700,1.548399658203125,-2.402405261993408,-1.926878809928894,0.09072285145521164
1684108177385416700,1.558416748046875,-1.5660178661346436,-0.7073097825050354,0.3162129521369934
1684108177395434500,1.5684345703125,-0.18270720541477203,1.8359931707382202,-0.042782362550497055
1684108177405451500,1.578451416015625,1.3252249956130981,4.912241458892822,-1.9335510730743408
1684108177415469600,1.588469482421875,0.9826170206069946,4.151957988739014,-2.618910312652588
1684108177425486600,1.598486572265625,-0.4969010353088379,0.84722501039505,-1.5167667865753174
1684108177435503600,1.608503662109375,-1.45160710811615,-0.34166833758354187,-0.3630538582801819
1684108177445521700,1.618521728515625,-0.6146885752677917,0.48491984605789185,0.7297753691673279
1684108177455538700,1.62853857421875,0.9748209714889526,1.200494408607483,1.8318305015563965
1684108177465556700,1.638556640625,1.935585379600525,1.8375118970870972,2.6782264709472656
1684108177475573500,1.648573486328125,2.1944921016693115,2.129379987716675,2.9781877994537354
1684108177485591600,1.658591552734375,2.2398979663848877,2.133673667907715,3.0281057357788086
1684108177495608600,1.668608642578125,2.316410541534424,2.2535433769226074,3.0231847763061523
1684108177505626600,1.678626708984375,2.40358304977417,1.939615249633789,2.770674705505371
1684108177515643600,1.6886435546875,2.6005725860595703,1.885090947151184,2.332282304763794
1684108177525661700,1.69866162109375,2.878920078277588,1.8561195135116577,1.8280271291732788
1684108177535678700,1.7086787109375,2.723109722137451,1.8285441398620605,1.5996447801589966
1684108177545695500,1.718695556640625,2.6068456172943115,1.476292610168457,1.4638328552246094
1684108177555713500,1.728713623046875,2.813897132873535,0.9796531796455383,1.3063113689422607
1684108177565730600,1.73873046875,3.390148401260376,0.36519184708595276,1.2600538730621338
1684108177575748600,1.74874853515625,4.064672470092773,-0.1226438507437706,1.2866824865341187
1684108177585765600,1.758765625,4.448817729949951,-0.7014800310134888,1.2208806276321411
1684108177595783700,1.76878369140625,4.36248254776001,-1.283596158027649,0.9641130566596985
1684108177605800700,1.77880078125,3.6642568111419678,-1.4660471677780151,0.3894057869911194
1684108177615818800,1.78881884765625,3.0103461742401123,-1.84223473072052,-0.6485204100608826
1684108177625835800,1.798835693359375,2.8128788471221924,-3.2527709007263184,-2.215743064880371
1684108177635852500,1.8088525390625,2.5110650062561035,-5.870219707489014,-3.66302490234375
1684108177645870600,1.81887060546875,2.0435848236083984,-6.548754692077637,-4.339306354522705
1684108177655887600,1.8288876953125,2.2167775630950928,-4.536685943603516,-4.298815727233887
1684108177665905700,1.83890576171875,3.2514703273773193,-2.129889965057373,-2.6658337116241455
1684108177675922700,1.848922607421875,4.5634026527404785,-0.6239290833473206,-0.9775286912918091
1684108177685940700,1.858940673828125,4.787721633911133,-0.37331125140190125,-0.5925900936126709
1684108177695957800,1.868957763671875,3.1755125522613525,0.9084485769271851,-0.16446265578269958
1684108177705975600,1.8789755859375,2.4623470306396484,0.5037844777107239,0.2351342737674713
1684108177715992600,1.88899267578125,1.1697951555252075,-0.3640744984149933,0.3299451768398285
1684108177726009600,1.899009521484375,-0.4111722707748413,0.821260392665863,1.3351507186889648
1684108177736027600,1.909027587890625,-0.43637943267822266,1.3241339921951294,1.781538963317871
1684108177746044700,1.919044677734375,-0.4157135784626007,1.1825337409973145,2.2559561729431152
1684108177756062700,1.929062744140625,-0.5018746256828308,0.7423461675643921,2.3855385780334473
1684108177766079700,1.939079833984375,-0.4764818847179413,0.7986307144165039,2.1868650913238525
1684108177776097500,1.94909765625,-0.46582719683647156,0.9355303645133972,2.029937505722046
1684108177786114800,1.95911474609375,-0.5095744132995605,1.2478346824645996,1.771979570388794
1684108177796132600,1.969132568359375,-0.39841312170028687,1.304953932762146,1.487282633781433
1684108177806149600,1.979149658203125,-0.15121929347515106,1.0446603298187256,1.2734614610671997
1684108177816167700,1.989167724609375,-0.04478026553988457,0.7117372155189514,1.2208768129348755
1684108177826184700,1.999184814453125,-0.13174152374267578,0.8121596574783325,1.3071218729019165
1684108177836201700,2.00920166015625,-0.2626974582672119,1.1646910905838013,1.4009523391723633
1684108177846219500,2.019219482421875,-0.45605069398880005,1.8756712675094604,1.5198243856430054
1684108177856236800,2.02923681640625,-0.838472843170166,2.757530927658081,1.6438077688217163
1684108177866254600,2.039254638671875,-1.920375943183899,2.8197412490844727,2.078731060028076
1684108177876271600,2.049271728515625,-3.4369897842407227,2.251533031463623,3.0162718296051025
1684108177886289700,2.05928955078125,-4.752621173858643,2.048793077468872,4.504227638244629
1684108177896306700,2.069306640625,-4.342991352081299,2.3806004524230957,4.694748401641846
1684108177906324700,2.07932470703125,-3.335991859436035,3.5407941341400146,4.045882701873779
1684108177916341500,2.089341552734375,-2.3429784774780273,3.5282392501831055,3.894080400466919
1684108177926359600,2.099359619140625,-1.628265619277954,3.5031096935272217,3.564271926879883
1684108177936376600,2.10937646484375,-1.3471845388412476,2.747447967529297,2.7042298316955566
1684108177946393900,2.119393798828125,-2.081620693206787,1.6454964876174927,2.1325387954711914
1684108177956411600,2.12941162109375,-2.7896156311035156,0.710131824016571,1.6740168333053589
1684108177966428700,2.1394287109375,-3.0326502323150635,0.38658708333969116,1.476154088973999
1684108177976446700,2.14944677734375,-2.9707562923431396,0.5102217793464661,1.2790136337280273
1684108177986463500,2.15946337890625,-2.946215867996216,0.787583589553833,0.576471745967865
1684108177996481500,2.1694814453125,-3.053622007369995,1.2505444288253784,-0.40919482707977295
1684108178006498600,2.17949853515625,-3.0325372219085693,1.9713943004608154,-1.3032113313674927
1684108178016516600,2.1895166015625,-2.571028232574463,2.6226909160614014,-1.3410612344741821
1684108178026533600,2.19953369140625,-2.096381664276123,2.2557616233825684,-0.4848695993423462
1684108178036551700,2.2095517578125,-1.3689478635787964,1.6053781509399414,0.20473402738571167
1684108178046568700,2.219568603515625,-0.8189626336097717,1.4391337633132935,0.2797379791736603
1684108178056585500,2.22958544921875,-0.5320751070976257,1.4367995262145996,-0.0794268250465393
1684108178066603800,2.239603759765625,-0.5243242383003235,1.6398465633392334,-0.28083983063697815
1684108178076620500,2.24962060546875,-0.19636259973049164,1.3434178829193115,-0.0036888669710606337
1684108178086638600,2.259638671875,0.25695163011550903,0.7916402816772461,0.45951926708221436
1684108178096655600,2.269655517578125,0.7857484221458435,-0.09826981276273727,1.0525672435760498
1684108178106673700,2.279673583984375,1.1661983728408813,-0.8447391986846924,2.003079891204834
1684108178116690700,2.289690673828125,1.4596933126449585,-1.4663186073303223,2.9590327739715576
1684108178126708500,2.29970849609375,1.7961463928222656,-1.6722581386566162,3.179197311401367
1684108178136725800,2.309725830078125,2.25417423248291,-1.946242332458496,3.249596118927002
1684108178146743600,2.31974365234375,2.6779093742370605,-2.480609893798828,3.2820959091186523
1684108178156760600,2.329760498046875,2.860530376434326,-2.994419574737549,2.93438720703125
1684108178166777600,2.339777587890625,2.919079303741455,-3.399364471435547,2.259495735168457
1684108178176795400,2.34979541015625,2.9560494422912598,-3.4184842109680176,1.4299520254135132
1684108178186812700,2.359812744140625,3.0830585956573486,-3.4595108032226562,0.7445366978645325
1684108178196830500,2.36983056640625,3.0938029289245605,-3.4319562911987305,0.2503870725631714
1684108178206847700,2.37984765625,2.7936370372772217,-1.838916301727295,0.17146643996238708
1684108178216865500,2.389865478515625,2.2368874549865723,-0.8442063331604004,-0.26248809695243835
1684108178226882600,2.399882568359375,1.6230868101119995,-0.8884488940238953,-1.178808331489563
1684108178236900600,2.409900634765625,1.0041590929031372,-0.7392421364784241,-1.5819511413574219
1684108178246917400,2.41991748046875,0.600548267364502,-1.0444895029067993,-1.6999555826187134
1684108178256935700,2.429935791015625,0.47365155816078186,-1.9408320188522339,-1.7349457740783691
1684108178266952400,2.439952392578125,0.1661273092031479,-2.1540098190307617,-1.6975384950637817
1684108178276969700,2.4499697265625,-0.24049395322799683,-2.230614423751831,-1.5860400199890137
1684108178286987500,2.459987548828125,-0.5148181915283203,-2.8082830905914307,-1.3816554546356201
1684108178297004500,2.470004638671875,-0.5913379192352295,-3.1291682720184326,-1.219290852546692
1684108178307022600,2.480022705078125,-0.49423080682754517,-3.088240623474121,-1.1642087697982788
1684108178317039600,2.49003955078125,-0.322294145822525,-2.7715470790863037,-1.192930817604065
1684108178327057700,2.5000576171875,0.01571665145456791,-2.3378419876098633,-1.453993558883667
1684108178337074400,2.510074462890625,0.21480843424797058,-1.9458110332489014,-1.8561296463012695
1684108178347092700,2.5200927734375,0.2718123495578766,-1.4440292119979858,-2.313549757003784
1684108178357109500,2.530109619140625,0.45342275500297546,-0.5083303451538086,-2.812129497528076
1684108178367127600,2.54012744140625,0.6700815558433533,1.213938593864441,-3.3198182582855225
1684108178377144600,2.55014453125,1.0140440464019775,2.1242897510528564,-3.8049120903015137
1684108178387161600,2.56016162109375,1.4121272563934326,1.974144697189331,-3.7132925987243652
1684108178397179600,2.5701796875,1.7231520414352417,1.893921971321106,-2.9492712020874023
1684108178407196400,2.580196533203125,1.8637901544570923,1.6343450546264648,-1.9479914903640747
1684108178417214700,2.590214599609375,1.7815070152282715,0.8681411147117615,-1.030662178993225
1684108178427231500,2.6002314453125,1.580169916152954,0.18215768039226532,-0.139250248670578
1684108178437249500,2.61024951171875,1.3392471075057983,-0.4855734407901764,0.6703302264213562
1684108178447266600,2.6202666015625,1.097196102142334,-0.9030289649963379,1.3588234186172485
1684108178457284400,2.630284423828125,0.8043211102485657,-0.7699805498123169,1.9433461427688599
1684108178467301600,2.640301513671875,0.4354994297027588,-0.19759690761566162,2.4156103134155273
1684108178477319400,2.6503193359375,-0.020079893991351128,0.5294188857078552,2.7575833797454834
1684108178487336700,2.660336669921875,-0.5389973521232605,1.27662992477417,2.997506856918335
1684108178497353500,2.670353515625,-0.9945551753044128,1.8020175695419312,3.1137685775756836
1684108178507371800,2.680371826171875,-1.1432570219039917,1.7103019952774048,3.0724375247955322
1684108178517388500,2.690388427734375,-0.9891952276229858,0.9585914015769958,2.796602249145508
1684108178527406300,2.70040625,-0.7481206059455872,0.06907185912132263,2.33193302154541
1684108178537423600,2.710423583984375,-0.49138808250427246,-0.49481430649757385,1.7665272951126099
1684108178547441400,2.72044140625,-0.32732564210891724,-0.5783555507659912,1.1624451875686646
1684108178557458700,2.730458740234375,-0.32269734144210815,-0.31278613209724426,0.5979142189025879
1684108178567476500,2.7404765625,-0.7491631507873535,0.08701029419898987,0.130302295088768
1684108178577493800,2.75049365234375,-1.73482084274292,0.527263879776001,-0.19453436136245728
1684108178587511600,2.760511474609375,-2.999558687210083,0.5609291195869446,-0.5005207061767578
1684108178597528600,2.770528564453125,-3.893845558166504,0.06751897931098938,-0.773184597492218
1684108178607546600,2.780546630859375,-4.2862749099731445,-0.4679519236087799,-0.5844269394874573
1684108178617563400,2.7905634765625,-4.377440452575684,-1.129360318183899,-0.07821150124073029
1684108178627580700,2.80058056640625,-4.467572212219238,-1.5941487550735474,0.5355440378189087
1684108178637598500,2.810598388671875,-4.734180927276611,-1.0062456130981445,1.0431302785873413
1684108178647615700,2.82061572265625,-4.810173511505127,1.0518932342529297,0.6767006516456604
1684108178657633500,2.830633544921875,-4.76474666595459,3.0618374347686768,0.008016442880034447
1684108178667650600,2.840650634765625,-4.860592365264893,3.6213512420654297,0.3873978555202484
1684108178677668600,2.850668701171875,-4.599661827087402,3.7456624507904053,0.6811431646347046
1684108178687685400,2.860685302734375,-4.027941703796387,4.109626293182373,-0.11356411874294281
1684108178697703700,2.87070361328125,-3.002018690109253,3.8004250526428223,-1.446424126625061
1684108178707720400,2.880720458984375,-1.7789362668991089,2.700468063354492,-2.403674602508545
1684108178717738800,2.89073876953125,-0.7275465726852417,0.9926878809928894,-3.040458917617798
1684108178727755500,2.900755615234375,-0.08794981986284256,-0.4977705180644989,-3.442267656326294
1684108178737773600,2.910773681640625,-0.057195600122213364,-1.3753938674926758,-3.640024423599243
1684108178747790600,2.92079052734375,-0.5709952712059021,-1.8082382678985596,-3.6426100730895996
1684108178757807600,2.9308076171875,-1.342479944229126,-1.6485062837600708,-3.8401272296905518
1684108178767825700,2.94082568359375,-2.346557378768921,-1.0514777898788452,-4.2438130378723145
1684108178777842400,2.950842529296875,-3.0839226245880127,-0.8263087272644043,-4.6281232833862305
1684108178787860700,2.96086083984375,-3.639831304550171,-1.0384265184402466,-4.800538539886475
1684108178797877500,2.97087744140625,-3.8021717071533203,-1.7773568630218506,-4.80091667175293
1684108178807895600,2.9808955078125,-3.9084391593933105,-2.2558727264404297,-4.347415447235107
1684108178817912600,2.99091259765625,-3.9787211418151855,-1.7892085313796997,-3.321733236312866
1684108178827930400,3.000930419921875,-3.820234775543213,-0.48364362120628357,-1.8899389505386353
1684108178837947600,3.01094775390625,-3.538925886154175,0.39215022325515747,0.07666569203138351
1684108178847965400,3.02096533203125,-3.570192813873291,1.1596620082855225,1.7164530754089355
1684108178857982700,3.030982666015625,-2.98240327835083,0.8676482439041138,2.9173340797424316
1684108178867999500,3.04099951171875,-1.8196427822113037,-2.2623109817504883,3.457789897918701
1684108178878017500,3.051017578125,-0.5545316934585571,-3.993370294570923,3.5798025131225586
1684108178888034600,3.06103466796875,0.8038274645805359,-4.637100696563721,3.8338446617126465
1684108178898052400,3.07105224609375,2.0087242126464844,-3.479717493057251,4.303644180297852
1684108178908069600,3.081069580078125,2.7075676918029785,-1.7673050165176392,4.321004390716553
1684108178918087400,3.09108740234375,2.810833692550659,-1.3813588619232178,3.2206332683563232
1684108178928104700,3.101104736328125,2.3163230419158936,-0.507341742515564,2.0354888439178467
1684108178938122500,3.11112255859375,1.8391928672790527,0.39644840359687805,1.1900495290756226
1684108178948139800,3.121139892578125,1.8047914505004883,1.155022382736206,0.8926514983177185
1684108178958157600,3.131157470703125,2.287889242172241,2.1824562549591064,1.205992341041565
1684108178968174300,3.14117431640625,2.987414836883545,2.6316163539886475,1.6072543859481812
1684108178978192600,3.151192626953125,3.4489424228668213,2.5729663372039795,1.915956974029541
1684108178988209400,3.16120947265625,3.571669340133667,2.1410515308380127,1.9935321807861328
1684108178998226700,3.171226806640625,3.3166565895080566,1.6066747903823853,1.660407304763794
1684108179008244500,3.181244384765625,2.852374315261841,1.4245344400405884,1.2981457710266113
1684108179018261800,3.19126171875,2.238361358642578,1.3451355695724487,1.029979944229126
1684108179028279600,3.201279541015625,1.5458108186721802,0.8923079371452332,0.6712306141853333
1684108179038296600,3.211296630859375,0.6414503455162048,0.09858351945877075,-0.01989046484231949
1684108179048314600,3.221314697265625,-0.17413845658302307,-0.7151927351951599,-0.9219605922698975
1684108179058331400,3.231331298828125,-0.4368203580379486,-1.0014374256134033,-1.765720248222351
1684108179068349700,3.241349609375,-0.0799407958984375,-0.9954652786254883,-2.5388898849487305
1684108179078366500,3.251366455078125,0.4930519461631775,-1.1994577646255493,-3.3829052448272705
1684108179088384500,3.261384521484375,0.7651071548461914,-1.4312814474105835,-4.090513706207275
1684108179098401500,3.271401611328125,0.7631269693374634,-1.6148945093154907,-4.399722576141357
1684108179108419600,3.281419677734375,0.6115691065788269,-1.376077651977539,-4.1025567054748535
1684108179118436600,3.2914365234375,0.25543802976608276,-0.9373578429222107,-3.5746076107025146
1684108179128453600,3.30145361328125,-0.05357841029763222,-0.3274611830711365,-2.9227850437164307
1684108179138471700,3.3114716796875,-0.2651471495628357,0.3263325095176697,-2.2395589351654053
1684108179148488700,3.32148876953125,-0.17538371682167053,0.7914464473724365,-1.5621957778930664
1684108179158506800,3.3315068359375,0.2502292990684509,0.7300848960876465,-0.5688683390617371
1684108179168523500,3.3415234375,0.08182937651872635,0.679546594619751,0.3873386085033417
1684108179178541600,3.35154150390625,-0.8553973436355591,0.10122962296009064,0.5962834358215332
1684108179188558600,3.36155859375,-1.7505379915237427,-0.7163054347038269,0.1202210783958435
1684108179198576600,3.37157666015625,-2.5704705715179443,-0.9825031757354736,-0.6664246916770935
1684108179208593700,3.38159375,-3.327119827270508,-0.5304558277130127,-1.3475803136825562
1684108179218611700,3.39161181640625,-4.040313243865967,-0.1841896027326584,-1.8984636068344116
1684108179228628700,3.401628662109375,-4.684457778930664,-0.12219546735286713,-2.335160493850708
1684108179238645500,3.4116455078125,-5.260948657989502,0.027973871678113937,-2.5347869396209717
1684108179248663600,3.42166357421875,-5.819340705871582,0.4783562421798706,-2.4038805961608887
1684108179258680600,3.4316806640625,-6.295137405395508,1.4972761869430542,-1.8693325519561768
1684108179268698600,3.44169873046875,-6.444684982299805,2.880375862121582,-1.2884631156921387
1684108179278715600,3.451715576171875,-6.1185102462768555,3.7558329105377197,-1.3899410963058472
1684108179288733700,3.461733642578125,-5.330833435058594,3.3876953125,-1.5038830041885376
1684108179298750700,3.471750732421875,-4.440298080444336,1.3441534042358398,-0.6718209981918335
1684108179308768800,3.481768798828125,-3.502157688140869,0.19710013270378113,-0.1220310628414154
1684108179318785800,3.491785888671875,-2.196725606918335,-1.4214972257614136,0.8561030626296997
1684108179328803600,3.501803466796875,-0.968714714050293,-1.929314374923706,1.7818481922149658
1684108179338820600,3.511820556640625,0.1834043562412262,-0.9388979077339172,2.413295269012451
1684108179348838700,3.521838623046875,1.3741079568862915,-0.0716475173830986,2.9198811054229736
1684108179358855700,3.531855712890625,2.3278303146362305,-0.025468848645687103,3.234346389770508
1684108179368872700,3.541872802734375,3.077761650085449,-0.4444213807582855,3.080745220184326
1684108179378890800,3.551890869140625,3.7359113693237305,-0.9069356322288513,2.4214937686920166
1684108179388907800,3.56190771484375,4.292989730834961,-1.1433948278427124,1.681670904159546
1684108179398925600,3.571925537109375,4.702963352203369,-0.9098902344703674,1.1900256872177124
1684108179408942600,3.581942626953125,4.90887451171875,-0.04782821238040924,0.927192211151123
1684108179418960600,3.591960693359375,4.797674179077148,1.1053757667541504,0.9577013254165649
1684108179428977700,3.601977783203125,4.365087985992432,1.8183457851409912,1.1092522144317627
1684108179438995700,3.61199560546875,3.9289681911468506,1.7872217893600464,1.1509052515029907
1684108179449012700,3.6220126953125,3.4921977519989014,1.3444992303848267,1.1376677751541138
1684108179459029800,3.63202978515625,2.967738628387451,0.6086118817329407,1.0639464855194092
1684108179469047600,3.642047607421875,2.2692511081695557,-0.14432528614997864,0.9056514501571655
1684108179479064600,3.652064697265625,1.4097603559494019,-0.5267815589904785,0.7369399666786194
1684108179489082600,3.66208251953125,0.4437393546104431,-0.682604193687439,0.5931828022003174
1684108179499099600,3.672099609375,-0.5714954733848572,-0.8366273045539856,0.533959686756134
1684108179509117700,3.68211767578125,-1.3454254865646362,-0.8991237282752991,0.5556671619415283
1684108179519134700,3.692134765625,-1.3790934085845947,-1.231384515762329,0.35692521929740906
1684108179529152500,3.702152587890625,-0.7776370644569397,-1.8337286710739136,-0.23667021095752716
1684108179539169500,3.71216943359375,-0.026267971843481064,-1.840811848640442,-1.1146862506866455
1684108179549187600,3.7221875,0.7134905457496643,-0.6015586853027344,-1.3162915706634521
1684108179559204600,3.73220458984375,0.904092013835907,-0.015868768095970154,-0.9033129811286926
1684108179569221600,3.7422216796875,0.6373245120048523,0.4902442395687103,-0.1472095549106598
1684108179579239700,3.75223974609375,0.31917673349380493,0.9612465500831604,0.5730568766593933
1684108179589256700,3.762256591796875,0.08952195942401886,1.443957805633545,1.057624101638794
1684108179599274800,3.772274658203125,-0.0639444962143898,1.8039336204528809,1.2953013181686401
1684108179609291500,3.78229150390625,-0.15983933210372925,2.077230930328369,1.3519893884658813
1684108179619309600,3.7923095703125,-0.21256332099437714,2.3010361194610596,1.3411691188812256
1684108179629326600,3.80232666015625,-0.31753289699554443,2.3792152404785156,1.274634838104248
1684108179639344600,3.8123447265625,-0.5513980388641357,1.8908740282058716,1.1188960075378418
1684108179649361700,3.822361572265625,-1.1917784214019775,1.255977988243103,0.6265456676483154
1684108179659379700,3.832379638671875,-2.1625075340270996,0.7094010710716248,-0.230837881565094
1684108179669396700,3.842396728515625,-2.79282546043396,-0.5549498200416565,-0.6012242436408997
1684108179679413500,3.85241357421875,-3.2309796810150146,-2.0806353092193604,-0.9724329113960266
1684108179689431600,3.862431640625,-3.297241687774658,-3.4540953636169434,-1.1562705039978027
1684108179699448600,3.872448486328125,-3.0154826641082764,-4.807702541351318,-0.9435828328132629
1684108179709466600,3.882466552734375,-2.4799680709838867,-5.995957851409912,-0.7455536127090454
1684108179719483600,3.892483642578125,-1.566204309463501,-5.76779317855835,-1.6628988981246948
1684108179729501700,3.902501708984375,-0.526217520236969,-3.6136157512664795,-3.2761943340301514
1684108179739518700,3.912518798828125,0.17505517601966858,-1.7558259963989258,-3.8687655925750732
1684108179749536800,3.922536865234375,0.6392409205436707,-0.6309341788291931,-3.805270195007324
1684108179759553800,3.9325537109375,0.8946971893310547,0.1143273189663887,-3.3403408527374268
1684108179769571600,3.942571533203125,0.8880416750907898,1.2481292486190796,-2.6373448371887207
1684108179779588600,3.952588623046875,0.8305692672729492,2.3008463382720947,-1.3637758493423462
1684108179789605600,3.962605712890625,1.0445870161056519,2.03338885307312,0.5093073844909668
1684108179799623700,3.972623779296875,1.1897953748703003,1.693112850189209,1.8450645208358765
1684108179809640700,3.982640625,0.39862924814224243,5.031142234802246,-0.8990805745124817
1684108179819658800,3.99265869140625,0.5976945161819458,2.3015973567962646,-0.40692174434661865
1684108179829675800,4.00267578125,0.938545823097229,0.32230696082115173,0.1409168392419815
1684108179839693600,4.012693603515625,0.6882376074790955,-0.05759010836482048,0.581178605556488
1684108179849710600,4.022710693359375,0.34580036997795105,-0.002375852782279253,1.0328112840652466
1684108179859728600,4.032728759765625,0.0903724953532219,0.4121645987033844,1.562667965888977
1684108179869745700,4.04274560546875,-0.03197339177131653,1.1545603275299072,2.0667903423309326
1684108179879763700,4.052763671875,0.16781949996948242,1.8580304384231567,2.460010290145874
1684108179889780700,4.06278076171875,0.7125272750854492,2.2886438369750977,2.773228168487549
1684108179899797800,4.0727978515625,1.564418911933899,2.0503482818603516,2.941865921020508
1684108179909815600,4.082815673828125,1.8302178382873535,1.7428624629974365,2.908278703689575
1684108179919832800,4.092832763671875,1.2578192949295044,1.2949947118759155,2.6823511123657227
1684108179929850600,4.1028505859375,0.42758840322494507,1.087834358215332,2.3912816047668457
1684108179939867600,4.11286767578125,-0.07402771711349487,1.1048504114151,2.141519546508789
1684108179949885700,4.1228857421875,-0.15084020793437958,1.203183650970459,1.9222533702850342
1684108179959902700,4.13290283203125,0.08814793080091476,1.2703531980514526,1.7512542009353638
1684108179969920500,4.14292041015625,0.5064269304275513,1.206727385520935,1.6784741878509521
1684108179979937500,4.1529375,0.9093419313430786,1.060227870941162,1.5865696668624878
1684108179989955600,4.16295556640625,0.9347695112228394,1.0245360136032104,1.3748701810836792
1684108179999972600,4.17297265625,0.11146192997694016,0.8015542030334473,1.4118534326553345
1684108180009989600,4.18298974609375,-1.8834587335586548,0.16595089435577393,1.785189151763916
1684108180020007700,4.193007568359375,-3.468336820602417,0.35986536741256714,1.656106948852539
1684108180030024700,4.203024658203125,-2.9765636920928955,1.7271138429641724,0.7402671575546265
1684108180040042800,4.213042724609375,-0.5997405648231506,3.3361077308654785,-0.3561359941959381
1684108180050059500,4.2230595703125,0.8585414886474609,3.5321998596191406,-0.37808868288993835
1684108180060077600,4.23307763671875,0.5473019480705261,2.013500690460205,0.4515925347805023
1684108180070094600,4.243094482421875,-0.120869480073452,0.3045874238014221,0.9975519776344299
1684108180080112600,4.253112548828125,-0.26662757992744446,-1.002350091934204,1.1338894367218018
1684108180090129700,4.263129638671875,-0.12084108591079712,-1.5389363765716553,1.174522042274475
1684108180100147700,4.273147705078125,0.3108457028865814,-1.2827361822128296,1.391162395477295
1684108180110164700,4.283164794921875,0.9553690552711487,-0.510731041431427,1.764905333518982
1684108180120181500,4.293181396484375,1.473091721534729,0.5583639144897461,2.1064774990081787
1684108180130199300,4.30319921875,1.5447832345962524,1.1244275569915771,2.0968081951141357
1684108180140216300,4.31321630859375,1.4121507406234741,1.338504433631897,2.012800455093384
1684108180150234000,4.323234130859375,1.023903727531433,1.1899549961090088,2.12629771232605
1684108180160251400,4.33325146484375,0.2137911021709442,0.7611678838729858,2.3834426403045654
1684108180170269200,4.343269287109375,-0.8574268221855164,0.3737218677997589,2.603114128112793
1684108180180286200,4.3532861328125,-1.8048619031906128,0.24519450962543488,2.8547046184539795
1684108180190304300,4.36330419921875,-2.304877281188965,0.3805384635925293,3.2118375301361084
1684108180200321300,4.3733212890625,-0.7991844415664673,1.006771206855774,3.6208229064941406
1684108180210339300,4.38333935546875,1.9818971157073975,1.1664146184921265,3.426666259765625
1684108180220356400,4.3933564453125,3.2741353511810303,0.8370534777641296,2.3997628688812256
1684108180230374400,4.40337451171875,3.0837345123291016,1.0060182809829712,1.6814119815826416
1684108180240391200,4.41339111328125,2.425351142883301,1.2425607442855835,1.0443800687789917
1684108180250408200,4.423408203125,1.8959437608718872,1.8791159391403198,0.46461230516433716
1684108180260426200,4.43342626953125,1.7248578071594238,3.3513219356536865,-0.1923559159040451
1684108180270443300,4.443443359375,1.877813458442688,4.4069647789001465,-0.9336694478988647
1684108180280461300,4.45346142578125,1.9196749925613403,4.103795528411865,-1.5693738460540771
1684108180290478300,4.463478271484375,1.3570568561553955,1.0757323503494263,-1.6555503606796265
1684108180300496400,4.473496337890625,0.6225982904434204,-1.707188367843628,-1.7680473327636719
1684108180310513200,4.48351318359375,-0.04074694961309433,-3.565477132797241,-2.1435160636901855
1684108180320531500,4.493531494140625,-0.3730666935443878,-3.9452288150787354,-2.50931978225708
1684108180330548200,4.50354833984375,-0.50789475440979,-3.666105270385742,-2.8255457878112793
1684108180340565200,4.513565185546875,-0.4806077480316162,-3.179166078567505,-3.099116325378418
1684108180350583300,4.523583251953125,-0.057881779968738556,-2.4178218841552734,-3.2033355236053467
1684108180360600300,4.533600341796875,0.5926303267478943,-1.8606700897216797,-3.2877840995788574
1684108180370618400,4.543618408203125,1.1250710487365723,-1.3761508464813232,-3.323549509048462
1684108180380635100,4.55363525390625,1.2272330522537231,-0.8568094968795776,-3.3268203735351562
1684108180390653400,4.5636533203125,0.8464542627334595,-0.25487273931503296,-3.2269272804260254
1684108180400670200,4.573670166015625,0.21291451156139374,0.45047470927238464,-2.904287338256836
1684108180410688300,4.583688232421875,-0.2110266536474228,1.2696537971496582,-2.2473304271698
1684108180420705300,4.593705322265625,-0.28638240694999695,1.585277795791626,-1.3466429710388184
1684108180430723000,4.60372314453125,-0.16791965067386627,1.1888824701309204,-0.45528507232666016
1684108180440740400,4.613740234375,-0.09274151921272278,0.4894702732563019,0.1365307718515396
1684108180450757400,4.62375732421875,-0.20995736122131348,-0.3703765571117401,0.3216622769832611
1684108180460775400,4.633775390625,-0.40757253766059875,-1.2784221172332764,0.19700123369693756
1684108180470792200,4.643792236328125,-0.4318690896034241,-1.8947497606277466,-0.008438213728368282
1684108180480810200,4.653810302734375,-0.28577864170074463,-2.008742094039917,-0.08295105397701263
1684108180490827300,4.6638271484375,-0.1457832008600235,-1.4506101608276367,0.1323585957288742
1684108180500845300,4.67384521484375,-0.09355296194553375,-0.21318407356739044,0.5295149683952332
1684108180510862300,4.6838623046875,-0.21908612549304962,0.6102635264396667,0.651907742023468
1684108180520880000,4.693880126953125,-0.4606383144855499,0.8042384386062622,0.47028300166130066
1684108180530897400,4.7038974609375,-0.6599456071853638,0.6400947570800781,0.15420334041118622
1684108180540915200,4.713915283203125,-0.7141848802566528,0.2871929109096527,-0.18890608847141266
1684108180550932200,4.72393212890625,-0.6415711641311646,-0.08282242715358734,-0.483692467212677
1684108180560950300,4.7339501953125,-0.5270092487335205,-0.3397456407546997,-0.6962223649024963
1684108180570967300,4.74396728515625,-0.41989666223526,-0.44191619753837585,-0.8073281049728394
1684108180580984300,4.753984375,-0.34353721141815186,-0.43438053131103516,-0.8148577213287354
1684108180591002000,4.764002197265625,-0.3004800081253052,-0.3925507962703705,-0.7751795649528503
1684108180601019400,4.774019287109375,-0.30506736040115356,-0.34034210443496704,-0.7052406072616577
1684108180611037200,4.784037109375,-0.35323676466941833,-0.2867145538330078,-0.626991868019104
1684108180621054200,4.79405419921875,-0.43303197622299194,-0.23804005980491638,-0.5320467948913574
1684108180631072300,4.804072265625,-0.5528875589370728,-0.22032684087753296,-0.4266279339790344
1684108180641089300,4.81408935546875,-0.6990229487419128,-0.2343032956123352,-0.33789610862731934
1684108180651107300,4.824107421875,-0.8901135325431824,-0.25582191348075867,-0.2791441082954407
1684108180661124400,4.834124267578125,-1.1080784797668457,-0.23147368431091309,-0.2352333664894104
1684108180671142400,4.844142333984375,-1.3435966968536377,-0.20337574183940887,-0.2280324548482895
1684108180681159200,4.8541591796875,-1.567151427268982,-0.1852884292602539,-0.2509239912033081
1684108180691176200,4.86417626953125,-1.727796196937561,-0.17972669005393982,-0.3048010766506195
1684108180701194200,4.8741943359375,-1.7318869829177856,-0.10589570552110672,-0.34945040941238403
1684108180711211300,4.884211181640625,-1.59588623046875,0.019667547196149826,-0.3681865334510803
1684108180721229300,4.894229248046875,-1.3783485889434814,0.1391909271478653,-0.35915690660476685
1684108180731246300,4.904246337890625,-1.1586250066757202,0.20732657611370087,-0.314688503742218
1684108180741264400,4.914264404296875,-1.0426214933395386,0.26942190527915955,-0.22218626737594604
1684108180751281200,4.92428125,-1.0541990995407104,0.34518352150917053,-0.11579644680023193
1684108180761299500,4.934299560546875,-1.173230767250061,0.4152528941631317,-0.018222995102405548
1684108180771316200,4.944316162109375,-1.3114564418792725,0.4903945326805115,0.11119438707828522
1684108180781334300,4.954334228515625,-1.4207757711410522,0.5892150402069092,0.2526606619358063
1684108180791351300,4.964351318359375,-1.4331227540969849,0.7225525975227356,0.40291541814804077
1684108180801368300,4.974368408203125,-1.3468092679977417,0.8774020075798035,0.533109724521637
1684108180811386400,4.984386474609375,-1.172011137008667,1.0207685232162476,0.6135281324386597
1684108180821403400,4.9944033203125,-0.9652479887008667,1.16728675365448,0.6598731279373169
1684108180831421400,5.00442138671875,-0.7350800037384033,1.2548564672470093,0.6512165665626526
1684108180841438200,5.014438232421875,-0.463701993227005,1.3628027439117432,0.6355668306350708
1684108180851456300,5.024456298828125,-0.2551431953907013,1.4406263828277588,0.6414029002189636
1684108180861473300,5.034473388671875,-0.1427275389432907,1.3752819299697876,0.6757871508598328
1684108180871491000,5.044490966796875,-0.12013806402683258,1.217804193496704,0.7048795223236084
1684108180881508400,5.05450830078125,-0.19040566682815552,1.103846788406372,0.7213599681854248
1684108180891526100,5.064526123046875,-0.30272743105888367,1.0470670461654663,0.7042409181594849
1684108180901543400,5.07454345703125,-0.46343034505844116,1.0420409440994263,0.6372731328010559
1684108180911560200,5.084560302734375,-0.6330521106719971,1.0341219902038574,0.542887270450592
1684108180921578200,5.094578125,-0.7227087020874023,0.9590160250663757,0.4375127851963043
1684108180931595300,5.10459521484375,-0.7154673337936401,0.8475073575973511,0.3473823666572571
1684108180941613300,5.11461328125,-0.5775743722915649,0.6300387382507324,0.2681763470172882
1684108180951630300,5.12463037109375,-0.3042341470718384,0.3460904061794281,0.18345585465431213
1684108180961648000,5.134648193359375,0.016688507050275803,0.07253041863441467,0.09011626243591309
1684108180971665400,5.14466552734375,0.31306344270706177,-0.16985584795475006,-0.012807190418243408
1684108180981683200,5.15468310546875,0.562076210975647,-0.39148885011672974,-0.10899307578802109
1684108180991700200,5.1647001953125,0.7539942264556885,-0.6227782368659973,-0.20279361307621002
1684108181001718300,5.17471826171875,0.8946404457092285,-0.8798859119415283,-0.30456918478012085
1684108181011735300,5.1847353515625,1.0844684839248657,-1.0760226249694824,-0.40382254123687744
1684108181021752300,5.19475244140625,1.4088901281356812,-1.173664927482605,-0.5264841318130493
1684108181031770000,5.20477001953125,1.8295528888702393,-1.1043345928192139,-0.6400054097175598
1684108181041787400,5.214787353515625,2.25730562210083,-0.9436815977096558,-0.7450240254402161
1684108181051805200,5.22480517578125,2.623293161392212,-0.7893253564834595,-0.8485661745071411
1684108181061822200,5.234822265625,2.8622450828552246,-0.7791301608085632,-0.9435980319976807
1684108181071840300,5.24484033203125,2.911200761795044,-1.0329298973083496,-0.9822162389755249
1684108181081857300,5.254857177734375,2.6717681884765625,-1.390414834022522,-0.9880281686782837
1684108181091875300,5.264875244140625,2.0547397136688232,-1.6456221342086792,-0.9932594299316406
1684108181101892400,5.274892333984375,1.0990099906921387,-1.536431074142456,-0.9929386973381042
1684108181111910400,5.284910400390625,0.055127281695604324,-1.1513358354568481,-0.9949115514755249
1684108181121927200,5.29492724609375,-0.32354065775871277,-0.6957567930221558,-0.8148398995399475
1684108181131945500,5.304945556640625,-0.0014957668026909232,-0.4104059934616089,-0.460919052362442
1684108181141962200,5.314962158203125,0.4371506869792938,-0.3729204535484314,-0.02380918711423874
1684108181151979500,5.3249794921875,0.5946447253227234,-0.40807342529296875,0.386812686920166
1684108181161997300,5.334997314453125,0.4785654544830322,-0.3197380304336548,0.7143702507019043
1684108181172014600,5.3450146484375,0.18298736214637756,-0.10284247249364853,0.9592199325561523
1684108181182032400,5.355032470703125,-0.08542579412460327,0.2079216092824936,1.08400559425354
1684108181192049400,5.36504931640625,-0.14786013960838318,0.7413139343261719,1.0259414911270142
1684108181202067500,5.3750673828125,-0.1666489988565445,1.2757161855697632,0.7377408146858215
1684108181212084200,5.385084228515625,-0.19531579315662384,1.5546423196792603,0.27919188141822815
1684108181222102500,5.3951025390625,-0.14459043741226196,1.47750723361969,-0.2192457914352417
1684108181232119300,5.405119384765625,-0.07730166614055634,1.1052484512329102,-0.6851842403411865
1684108181242137300,5.415137451171875,0.014855664223432541,0.6956451535224915,-0.9731329679489136
1684108181252154400,5.425154296875,0.10005338490009308,0.13499194383621216,-1.068057656288147
1684108181262171400,5.43517138671875,0.12942202389240265,-0.4322187602519989,-0.8974997401237488
1684108181272189400,5.445189453125,0.04360751435160637,-0.5996232032775879,-0.5963838696479797
1684108181282206200,5.455206298828125,-0.0919974073767662,-0.34763243794441223,-0.3428443968296051
1684108181292224500,5.465224609375,-0.1893463283777237,-0.03442230820655823,-0.20031309127807617
1684108181302241300,5.4752412109375,-0.21820729970932007,0.16898709535598755,-0.1399780511856079
1684108181312259300,5.48525927734375,-0.19022519886493683,0.2254655510187149,-0.1313992142677307
1684108181322276400,5.4952763671875,-0.13640332221984863,0.14862757921218872,-0.13610972464084625
1684108181332294400,5.50529443359375,-0.055350810289382935,-0.003434395883232355,-0.11026640236377716
1684108181342311400,5.5153115234375,0.03892001882195473,-0.16791220009326935,-0.05286853015422821
1684108181352329500,5.52532958984375,0.10578612983226776,-0.3382737934589386,-0.00007801872561685741
1684108181362346500,5.535346435546875,0.15370598435401917,-0.4965449273586273,0.03083222731947899
1684108181372364300,5.5453642578125,0.19454209506511688,-0.6104390621185303,0.046863656491041183
1684108181382381300,5.55538134765625,0.2318652868270874,-0.6861737370491028,0.06602293998003006
1684108181392398300,5.5653984375,0.2676754593849182,-0.7391160726547241,0.08683767914772034
1684108181402416400,5.57541650390625,0.2968969941139221,-0.7511919736862183,0.12120703607797623
1684108181412433400,5.585433349609375,0.311029851436615,-0.7008209228515625,0.1567290723323822
1684108181422451500,5.595451416015625,0.30849573016166687,-0.6029322147369385,0.18305547535419464
1684108181432468500,5.605468505859375,0.28133442997932434,-0.4947146475315094,0.17900560796260834
1684108181442486300,5.615486328125,0.2372845560312271,-0.3842759132385254,0.15771615505218506
1684108181452503600,5.625503662109375,0.18885363638401031,-0.29653435945510864,0.13960452377796173
1684108181462521300,5.635521240234375,0.1517357975244522,-0.23463138937950134,0.12839064002037048
1684108181472538400,5.645538330078125,0.13685111701488495,-0.19208553433418274,0.13572685420513153
1684108181482556400,5.655556396484375,0.11863589286804199,-0.17622241377830505,0.15860314667224884
1684108181492573400,5.665573486328125,0.1001354455947876,-0.19094596803188324,0.1915736049413681
1684108181502590500,5.675590576171875,0.07116534560918808,-0.2189425230026245,0.2207266390323639
1684108181512608300,5.685608154296875,0.04100264981389046,-0.24175676703453064,0.24334166944026947
1684108181522625500,5.69562548828125,0.028869902715086937,-0.24971777200698853,0.24461941421031952
1684108181532643300,5.705643310546875,0.03381406143307686,-0.23641395568847656,0.22513572871685028
1684108181542660400,5.715660400390625,0.055159833282232285,-0.20321913063526154,0.18423528969287872
1684108181552678400,5.725678466796875,0.06393441557884216,-0.15606281161308289,0.15481960773468018
1684108181562695400,5.7356953125,0.06765986979007721,-0.10084732621908188,0.14130288362503052
1684108181572713500,5.74571337890625,0.07944648712873459,-0.0554947555065155,0.1420472413301468
1684108181582730200,5.755730224609375,0.08777597546577454,-0.021240998059511185,0.156005859375
1684108181592748300,5.765748291015625,0.11327973753213882,0.0008110413327813148,0.17449991405010223
1684108181602765300,5.775765380859375,0.14906591176986694,0.0208488367497921,0.1842200756072998
1684108181612783400,5.785783447265625,0.1818491667509079,0.04234480857849121,0.18499000370502472
1684108181622800400,5.79580029296875,0.21113908290863037,0.04741395637392998,0.1783180683851242
1684108181632817400,5.8058173828125,0.22001619637012482,0.03642388805747032,0.16899274289608002
1684108181642835500,5.81583544921875,0.22049613296985626,0.01055607758462429,0.1651892364025116
1684108181652852200,5.825852294921875,0.22425518929958344,-0.021496929228305817,0.16608963906764984
1684108181662870500,5.83587060546875,0.22164614498615265,-0.04347413033246994,0.18733128905296326
1684108181672887300,5.84588720703125,0.2263181358575821,-0.04701373726129532,0.214697927236557
1684108181682905300,5.8559052734375,0.24706639349460602,-0.032399117946624756,0.251650333404541
1684108181692922400,5.86592236328125,0.27382102608680725,-0.005833287723362446,0.2819182276725769
1684108181702940400,5.8759404296875,0.2883138358592987,0.023865574970841408,0.30466118454933167
1684108181712957400,5.88595751953125,0.2973574101924896,0.04492771625518799,0.32662132382392883
1684108181722975500,5.8959755859375,0.3114280104637146,0.05839746445417404,0.3292943835258484
1684108181732992500,5.905992431640625,0.31578922271728516,0.06067074090242386,0.31118541955947876
1684108181743010300,5.91601025390625,0.3156547546386719,0.05475833639502525,0.2740325331687927
1684108181753027300,5.92602734375,0.3185964822769165,0.03508743271231651,0.2306283414363861
1684108181763044400,5.93604443359375,0.3129567801952362,0.005070243030786514,0.17690104246139526
1684108181773062400,5.9460625,0.28974229097366333,-0.03491844981908798,0.10628946125507355
1684108181783079400,5.956079345703125,0.2523895800113678,-0.06690088659524918,0.022432107478380203
1684108181793097500,5.966097412109375,0.20627641677856445,-0.09184218943119049,-0.07879384607076645
1684108181803114500,5.976114501953125,0.16142019629478455,-0.11631052941083908,-0.1906442642211914
1684108181813132300,5.98613232421875,0.11039988696575165,-0.14161881804466248,-0.291843056678772
1684108181823149600,5.996149658203125,0.05987808480858803,-0.1453501582145691,-0.3657534718513489
1684108181833167400,6.00616748046875,0.01172387134283781,-0.13205726444721222,-0.3862757682800293
1684108181843184400,6.016184326171875,-0.02160264551639557,-0.10695785284042358,-0.35671985149383545
1684108181853202400,6.026202392578125,-0.05647701025009155,-0.10308961570262909,-0.2761951684951782
1684108181863219500,6.036219482421875,-0.09630030393600464,-0.09812653064727783,-0.17270763218402863
1684108181873236500,6.046236572265625,-0.16928476095199585,-0.07021208107471466,-0.049174509942531586
1684108181883254300,6.056254150390625,-0.2569541037082672,-0.0027713566087186337,0.09046235680580139
1684108181893271600,6.066271484375,-0.3129848837852478,0.10036221891641617,0.24145346879959106
1684108181903289300,6.076289306640625,-0.3260206878185272,0.20281632244586945,0.40769162774086
1684108181913306400,6.086306396484375,-0.33238697052001953,0.26995036005973816,0.6027361750602722
1684108181923324400,6.096324462890625,-0.33861514925956726,0.27645522356033325,0.8400676250457764
1684108181933341400,6.106341552734375,-0.3297420144081116,0.22892339527606964,1.1154171228408813
1684108181943359500,6.116359375,-0.2761840522289276,0.22364428639411926,1.4017126560211182
1684108181953376300,6.126376220703125,-0.17166298627853394,0.38715681433677673,1.626711368560791
1684108181963394300,6.136394287109375,-0.04143376275897026,0.7053235173225403,1.7222622632980347
1684108181973411300,6.146411376953125,0.08427383005619049,0.9556220173835754,1.706373929977417
1684108181983429400,6.156429443359375,0.21502159535884857,0.9981126189231873,1.611648678779602
1684108181993446400,6.1664462890625,0.32497045397758484,0.8865863680839539,1.4740431308746338
1684108182003463400,6.17646337890625,0.39927369356155396,0.7246748208999634,1.3019417524337769
1684108182013481500,6.1864814453125,0.44241663813591003,0.6263309121131897,1.0815984010696411
1684108182023498200,6.196498291015625,0.4435845911502838,0.5975688099861145,0.851897656917572
1684108182033516300,6.206516357421875,0.4228167235851288,0.5967216491699219,0.6374630928039551
1684108182043533300,6.216533203125,0.4256362318992615,0.5676071047782898,0.438117653131485
1684108182053551400,6.22655126953125,0.431242972612381,0.44606703519821167,0.22910107672214508
1684108182063568400,6.236568359375,0.47083279490470886,0.2903749346733093,-0.00020321749616414309
1684108182073586400,6.24658642578125,0.5363844037055969,0.22095005214214325,-0.18634407222270966
1684108182083603500,6.256603515625,0.5832033753395081,0.18943430483341217,-0.3178236782550812
1684108182093621500,6.26662158203125,0.6106659173965454,0.2529115378856659,-0.3104613721370697
1684108182103638500,6.276638427734375,0.5987844467163086,0.262513667345047,-0.22129787504673004
1684108182113656300,6.28665625,0.572742223739624,0.15731267631053925,-0.061115656048059464
1684108182123673600,6.296673583984375,0.6171892881393433,0.006124849431216717,0.1087038666009903
1684108182133690600,6.306690673828125,0.6126334071159363,-0.19101831316947937,0.2107788324356079
1684108182143708700,6.316708740234375,0.5305673480033875,-0.30284518003463745,0.30720505118370056
1684108182153725700,6.3267255859375,0.46973487734794617,-0.2130817174911499,0.44271332025527954
1684108182163743700,6.33674365234375,0.43066346645355225,-0.003890867345035076,0.5872607827186584
1684108182173760800,6.3467607421875,0.3702440559864044,0.24246299266815186,0.7001023888587952
1684108182183778800,6.35677880859375,0.29410773515701294,0.45082417130470276,0.7810739278793335
1684108182193795600,6.366795654296875,0.20793183147907257,0.6073576211929321,0.833934485912323
1684108182203813600,6.376813720703125,0.11469635367393494,0.6981475949287415,0.851828932762146
1684108182213830700,6.38683056640625,0.04196595773100853,0.6935925483703613,0.8384214639663696
1684108182223848700,6.3968486328125,0.011974669061601162,0.5645761489868164,0.8176932334899902
1684108182233865700,6.40686572265625,0.010111788287758827,0.32468390464782715,0.7740868926048279
1684108182243883500,6.416883544921875,0.023072049021720886,0.0838514119386673,0.6694802045822144
1684108182253900800,6.42690087890625,0.036904238164424896,-0.044098831713199615,0.4962841272354126
1684108182263917600,6.43691748046875,0.031996190547943115,-0.07055750489234924,0.27055126428604126
1684108182273935600,6.446935546875,0.004817831330001354,-0.055760711431503296,0.03527109697461128
1684108182283952600,6.45695263671875,-0.038642462342977524,-0.03668662905693054,-0.16267582774162292
1684108182293970700,6.466970703125,-0.0765397772192955,-0.027566101402044296,-0.288495272397995
1684108182303987700,6.47698779296875,-0.11479015648365021,-0.020995106548070908,-0.3331693708896637
1684108182314005500,6.487005615234375,-0.1544363647699356,-0.025356300175189972,-0.3083694577217102
1684108182324022500,6.4970224609375,-0.1849396824836731,-0.012932386249303818,-0.24588266015052795
1684108182334040600,6.50704052734375,-0.20612460374832153,0.018209289759397507,-0.1786990910768509
1684108182344057600,6.5170576171875,-0.21797354519367218,0.0629478245973587,-0.1578293889760971
1684108182354075600,6.52707568359375,-0.22177495062351227,0.0797039046883583,-0.19275915622711182
1684108182364092700,6.5370927734375,-0.2190183848142624,0.026920923963189125,-0.2566579282283783
1684108182374110700,6.54711083984375,-0.21292321383953094,-0.09414611011743546,-0.33636474609375
1684108182384127700,6.557127685546875,-0.18654777109622955,-0.23838140070438385,-0.39597511291503906
1684108182394144500,6.56714453125,-0.14644190669059753,-0.3600170314311981,-0.4150899648666382
1684108182404162600,6.57716259765625,-0.09538839757442474,-0.42699578404426575,-0.3869922459125519
1684108182414179600,6.5871796875,-0.03868623450398445,-0.4218582808971405,-0.32801762223243713
1684108182424197600,6.59719775390625,0.0037422922905534506,-0.37593507766723633,-0.23758451640605927
1684108182434214700,6.607214599609375,0.005669621750712395,-0.31448692083358765,-0.12450696527957916
1684108182444232700,6.617232666015625,0.011859088204801083,-0.19259439408779144,0.0004756222479045391
1684108182454249700,6.627249755859375,0.009618837386369705,0.019510678946971893,0.11736762523651123
1684108182464267800,6.637267822265625,-0.01861514151096344,0.2223796397447586,0.17779314517974854
1684108182474284500,6.647284423828125,-0.058178264647722244,0.26943981647491455,0.1388356238603592
1684108182484302800,6.657302734375,-0.07681825757026672,0.15312041342258453,0.0020455610938370228
1684108182494319600,6.667319580078125,-0.0845816358923912,-0.03519437462091446,-0.21931453049182892
1684108182504337700,6.677337646484375,-0.09572091698646545,-0.20628321170806885,-0.4900950789451599
1684108182514354700,6.687354736328125,-0.12680800259113312,-0.32435017824172974,-0.7630922198295593
1684108182524371700,6.697371826171875,-0.162720188498497,-0.39667418599128723,-0.9669350981712341
1684108182534389800,6.7073896484375,-0.17164470255374908,-0.43069422245025635,-1.0795775651931763
1684108182544406500,6.717406494140625,-0.1601521372795105,-0.4404328465461731,-1.0921894311904907
1684108182554424800,6.7274248046875,-0.15240579843521118,-0.4269852042198181,-1.009373426437378
1684108182564441600,6.737441650390625,-0.1399964541196823,-0.3907605707645416,-0.8408500552177429
1684108182574459600,6.747459716796875,-0.1206592470407486,-0.349719375371933,-0.6077542304992676
1684108182584476700,6.7574765625,-0.10064156353473663,-0.3240717053413391,-0.33690693974494934
1684108182594494500,6.767494384765625,-0.06761517375707626,-0.31525665521621704,-0.05633598938584328
1684108182604511700,6.77751171875,-0.03760985657572746,-0.3118736147880554,0.19315829873085022
1684108182614529500,6.787529541015625,-0.026976387947797775,-0.2814781665802002,0.3732343316078186
1684108182624546800,6.797546875,-0.03200136497616768,-0.17984716594219208,0.467296838760376
1684108182634564600,6.807564697265625,-0.04415576532483101,0.0313500240445137,0.4744327962398529
1684108182644581600,6.81758154296875,-0.056239888072013855,0.3469736874103546,0.3962218165397644
1684108182654598700,6.8275986328125,-0.07659336179494858,0.6409744024276733,0.24327673017978668
1684108182664616700,6.83761669921875,-0.10795129835605621,0.7431589365005493,0.05371861904859543
1684108182674633700,6.8476337890625,-0.14477509260177612,0.5853690505027771,-0.11015953123569489
1684108182684651500,6.857651611328125,-0.16004784405231476,0.17646513879299164,-0.208719402551651
1684108182694668500,6.86766845703125,-0.14124459028244019,-0.24059227108955383,-0.26805728673934937
1684108182704686600,6.8776865234375,-0.13401344418525696,-0.43629804253578186,-0.35724833607673645
1684108182714703600,6.88770361328125,-0.15972839295864105,-0.40337443351745605,-0.46838390827178955
1684108182724721700,6.8977216796875,-0.20562921464443207,-0.24535569548606873,-0.546836256980896
1684108182734738700,6.90773876953125,-0.2383594661951065,-0.04771851748228073,-0.5540036559104919
1684108182744756700,6.9177568359375,-0.2249806523323059,0.07981761544942856,-0.46435630321502686
1684108182754773500,6.9277734375,-0.16625767946243286,0.09194831550121307,-0.32195043563842773
1684108182764791800,6.937791748046875,-0.10162459313869476,0.07208786904811859,-0.15409958362579346
1684108182774808600,6.94780859375,-0.06833135336637497,0.13381114602088928,-0.01581733115017414
1684108182784825600,6.95782568359375,-0.12026097625494003,0.2734578549861908,0.06917118281126022
1684108182794843600,6.96784375,-0.20266637206077576,0.523270308971405,0.09632876515388489
1684108182804860700,6.977860595703125,-0.2561042904853821,0.9058298468589783,0.019575564190745354
1684108182814878700,6.987878662109375,-0.264066606760025,1.2302830219268799,-0.18300656974315643
1684108182824895700,6.997895751953125,-0.218941330909729,1.292853832244873,-0.5134639739990234
1684108182834913800,7.007913818359375,-0.15263287723064423,1.0497705936431885,-0.8818633556365967
1684108182844930600,7.0179306640625,-0.10319694131612778,0.6739000678062439,-1.166939616203308
1684108182854948900,7.027948974609375,-0.06649405509233475,0.4322618544101715,-1.3021177053451538
1684108182864965600,7.037965576171875,-0.055607203394174576,0.46389779448509216,-1.306227684020996
1684108182874983400,7.0479833984375,-0.07507570832967758,0.6830940842628479,-1.2043402194976807
1684108182885000700,7.058000732421875,-0.13806907832622528,0.7214145660400391,-1.009346842765808
1684108182895018500,7.0680185546875,-0.1820884644985199,0.3832769989967346,-0.7484911680221558
1684108182905035800,7.078035888671875,-0.17224639654159546,-0.11350329220294952,-0.5215330123901367
1684108182915053600,7.088053466796875,-0.1455652415752411,-0.5137180685997009,-0.3808445632457733
1684108182925070800,7.09807080078125,-0.11520923674106598,-0.6555667519569397,-0.3089660406112671
1684108182935087600,7.108087646484375,-0.07295925170183182,-0.5535604953765869,-0.2578783631324768
1684108182945105700,7.118105712890625,-0.04815003275871277,-0.344581663608551,-0.18679934740066528
1684108182955122700,7.128122802734375,-0.03237346559762955,-0.10781601816415787,-0.06649211049079895
1684108182965140500,7.138140380859375,-0.023590149357914925,0.12112874537706375,0.11061714589595795
1684108182975157800,7.14815771484375,-0.020775455981492996,0.27887922525405884,0.33885085582733154
1684108182985175600,7.158175537109375,-0.02999778464436531,0.30380064249038696,0.6324255466461182
1684108182995192800,7.16819287109375,-0.026342330500483513,0.17423386871814728,0.9864208698272705
1684108183005210600,7.178210693359375,0.03555212542414665,-0.06523215770721436,1.3704464435577393
1684108183015227600,7.1882275390625,0.11540327966213226,-0.2668563723564148,1.696073293685913
1684108183025245700,7.19824560546875,0.11333585530519485,-0.31545746326446533,1.8978122472763062
1684108183035262500,7.208262451171875,0.04807828739285469,-0.1440761238336563,1.9172194004058838
1684108183045280800,7.21828076171875,-0.0386483334004879,0.18782326579093933,1.7138069868087769
1684108183055297500,7.228297607421875,-0.07561700791120529,0.42212897539138794,1.3384288549423218
1684108183065314600,7.238314453125,-0.03373349830508232,0.3257695138454437,0.8837461471557617
1684108183075332600,7.24833251953125,0.06841976195573807,-0.008846037089824677,0.4597245156764984
1684108183085349600,7.258349609375,0.16136996448040009,-0.2598823308944702,0.15349821746349335
1684108183095367700,7.26836767578125,0.1857064664363861,-0.2841314673423767,-0.028895026072859764
1684108183105384700,7.278384765625,0.14555729925632477,-0.17035964131355286,-0.11926671862602234
1684108183115402800,7.28840283203125,0.04408340901136398,-0.027538571506738663,-0.1255405992269516
1684108183125419500,7.29841943359375,-0.07543828338384628,0.09883569180965424,-0.06346012651920319
1684108183135437600,7.3084375,-0.170304074883461,0.17780081927776337,0.053063031286001205
1684108183145454600,7.31845458984375,-0.22066952288150787,0.16464301943778992,0.17651182413101196
1684108183155472600,7.32847265625,-0.20677368342876434,0.06830769777297974,0.2455311119556427
1684108183165489700,7.33848974609375,-0.15485547482967377,-0.01058516651391983,0.23660694062709808
1684108183175507500,7.348507568359375,-0.1114739179611206,-0.013920774683356285,0.1588687300682068
1684108183185524500,7.3585244140625,-0.0692054033279419,0.04462109133601189,0.025960475206375122
1684108183195542500,7.36854248046875,-0.03387564420700073,0.18076027929782867,-0.11931975185871124
1684108183205559600,7.3785595703125,-0.02983212284743786,0.33871006965637207,-0.2410958856344223
1684108183215576600,7.38857666015625,-0.05738438665866852,0.42409926652908325,-0.30047640204429626
1684108183225594600,7.3985947265625,-0.10658177733421326,0.3778002858161926,-0.25702202320098877
1684108183235611600,7.408611572265625,-0.16123943030834198,0.21588970720767975,-0.18378669023513794
1684108183245629400,7.41862939453125,-0.21882453560829163,0.09367901086807251,-0.2540031671524048
1684108183255646500,7.428646484375,-0.2526291012763977,0.06946714222431183,-0.5032574534416199
1684108183265664500,7.43866455078125,-0.22286443412303925,0.07342088222503662,-0.8088013529777527
1684108183275681500,7.448681640625,-0.15095029771327972,0.1415940672159195,-1.0582804679870605
1684108183285699600,7.458699462890625,-0.11156504601240158,0.2477719932794571,-1.2005289793014526
1684108183295716600,7.468716552734375,-0.11141643673181534,0.317731112241745,-1.2315983772277832
1684108183305734700,7.478734619140625,-0.1512276828289032,0.30915525555610657,-1.1619210243225098
1684108183315751700,7.488751708984375,-0.1954478770494461,0.18998360633850098,-0.9888498187065125
1684108183325769700,7.498769775390625,-0.2386796623468399,0.10861268639564514,-0.7461118698120117
1684108183335786500,7.508786376953125,-0.2300979048013687,0.33357468247413635,-0.6209737062454224
1684108183345803500,7.518803466796875,-0.14368611574172974,0.5037824511528015,-0.714645504951477
1684108183355821600,7.528821533203125,-0.04435393214225769,0.19204081594944,-0.9640198945999146
1684108183365838600,7.538838623046875,0.11628254503011703,-0.171859011054039,-1.3478586673736572
1684108183375856600,7.548856689453125,0.3387446403503418,-0.1175057590007782,-1.9768439531326294
1684108183385873700,7.558873779296875,0.6006819605827332,0.44081470370292664,-3.0632779598236084
1684108183395891700,7.5688916015625,0.811847448348999,0.5702571272850037,-4.52800989151001
1684108183405908500,7.578908447265625,0.9536790251731873,-0.7827115654945374,-5.732104301452637
1684108183415926500,7.588926513671875,1.2263115644454956,-2.682408094406128,-6.283273220062256
1684108183425943600,7.598943603515625,1.6497509479522705,-3.46250581741333,-6.448988437652588
1684108183435961600,7.608961669921875,2.0636367797851562,-3.2819511890411377,-6.352579593658447
1684108183445978600,7.618978515625,2.391486406326294,-2.640397310256958,-5.886928081512451
1684108183455996400,7.628996337890625,2.652345657348633,-1.755821943283081,-5.025640487670898
1684108183466013700,7.639013671875,2.8862390518188477,-1.0120770931243896,-4.249505043029785
1684108183476031500,7.649031494140625,3.1950833797454834,-0.09927064925432205,-3.5128421783447266
1684108183486048500,7.659048583984375,3.1741104125976562,2.110522508621216,-2.347651958465576
1684108183496066600,7.669066650390625,2.7685775756835938,4.055688381195068,-1.0551234483718872
1684108183506083600,7.67908349609375,2.2874627113342285,4.760153293609619,0.14963945746421814
1684108183516100600,7.6891005859375,1.8365213871002197,4.8462958335876465,0.8968692421913147
1684108183526118400,7.699118408203125,1.2676328420639038,5.468330383300781,1.4188590049743652
1684108183536135700,7.7091357421875,0.5968065857887268,6.485924243927002,1.8696935176849365
1684108183546153500,7.719153564453125,-0.07063965499401093,7.034451961517334,2.172330141067505
1684108183556170500,7.72917041015625,-0.6724475026130676,6.690487861633301,2.126004457473755
1684108183566188500,7.7391884765625,-1.173783302307129,5.512503623962402,1.517418384552002
1684108183576205600,7.74920556640625,-1.4408572912216187,4.20629358291626,0.39716899394989014
1684108183586223600,7.7592236328125,-1.4135363101959229,3.359239339828491,-0.7222335338592529
1684108183596240600,7.76924072265625,-1.1872533559799194,2.5498082637786865,-1.4772661924362183
1684108183606258700,7.7792587890625,-0.8884947299957275,1.7779244184494019,-1.8747825622558594
1684108183616275500,7.789275390625,-0.595340371131897,1.1111758947372437,-1.9805747270584106
1684108183626293800,7.799293701171875,-0.3429265320301056,0.4901387691497803,-1.875192642211914
1684108183636310500,7.809310546875,-0.14332075417041779,-0.14666993916034698,-1.655668020248413
1684108183646327600,7.81932763671875,0.02190963365137577,-0.6376042366027832,-1.3637893199920654
1684108183656345600,7.829345703125,0.027842624112963676,-0.8389235138893127,-1.0508811473846436
1684108183666362600,7.839362548828125,-0.15514148771762848,-0.8097200989723206,-0.7405147552490234
1684108183676380700,7.849380615234375,-0.3401712477207184,-0.7517001628875732,-0.43264323472976685
1684108183686397400,7.8593974609375,-0.48084360361099243,-0.8118529319763184,-0.17455141246318817
1684108183696415700,7.869415771484375,-0.5862177014350891,-1.0542575120925903,0.03525107726454735
1684108183706432500,7.8794326171875,-0.6566215753555298,-1.48391592502594,0.1557464301586151
1684108183716450600,7.889450439453125,-0.6592610478401184,-2.038809299468994,0.1699967384338379
1684108183726467600,7.899467529296875,-0.5837052464485168,-2.701159715652466,0.05083752050995827
1684108183736485400,7.9094853515625,-0.3725442588329315,-3.280106544494629,-0.23684193193912506
1684108183746502700,7.919502685546875,0.08662049472332001,-2.5844640731811523,-0.8196538090705872
1684108183756520400,7.9295205078125,0.6206154823303223,-1.201209306716919,-1.4502781629562378
1684108183766537700,7.939537841796875,0.860332727432251,-0.7349787354469299,-1.6444419622421265
1684108183776555500,7.949555419921875,0.6062812805175781,-1.443200707435608,-1.340362787246704
1684108183786572500,7.959572509765625,0.14641156792640686,-2.472306728363037,-0.8061111569404602
1684108183796589600,7.969589599609375,-0.21116013824939728,-2.699097156524658,-0.4099121689796448
1684108183806607400,7.979607421875,-0.4055027961730957,-1.5846444368362427,-0.26968351006507874
1684108183816624600,7.989624755859375,-0.4746333956718445,0.12969835102558136,-0.020775683224201202
1684108183826642400,7.999642333984375,-0.40704667568206787,0.960532546043396,0.4094405174255371
1684108183836659700,8.00965966796875,-0.2832578718662262,0.5551594495773315,0.8896867036819458
1684108183846677500,8.019677490234375,-0.15352685749530792,-0.0939665287733078,1.1111619472503662
1684108183856694500,8.029694580078125,-0.043740708380937576,-0.11603374779224396,0.8625585436820984
1684108183866712600,8.039712646484375,0.05009189248085022,0.220311239361763,0.3783974349498749
1684108183876729600,8.0497294921875,0.0906241312623024,0.19289134442806244,0.12503334879875183
1684108183886747600,8.05974755859375,0.09355680644512177,-0.17067915201187134,0.23649516701698303
1684108183896764400,8.069764404296874,0.09155277907848358,-0.43423542380332947,0.5619044303894043
1684108183906782700,8.07978271484375,0.046836595982313156,-0.3216336667537689,0.9081796407699585
1684108183916799500,8.089799560546876,-0.06342652440071106,-0.00835192110389471,1.1624548435211182
1684108183926816500,8.09981640625,-0.1798119992017746,0.2245713323354721,1.315582275390625
1684108183936834600,8.10983447265625,-0.2442602515220642,0.2566699683666229,1.3470097780227661
1684108183946851600,8.1198515625,-0.26846426725387573,0.24551458656787872,1.227434515953064
1684108183956869600,8.12986962890625,-0.28767257928848267,0.26146215200424194,1.056428074836731
1684108183966886400,8.139886474609375,-0.3040391802787781,0.23566988110542297,0.900418221950531
1684108183976904700,8.14990478515625,-0.3141442835330963,0.03670484945178032,0.705929160118103
1684108183986921500,8.15992138671875,-0.28260019421577454,-0.38804110884666443,0.3736553192138672
1684108183996939800,8.169939697265624,-0.2021423578262329,-0.8415473699569702,-0.09050674736499786
1684108184006956500,8.17995654296875,-0.07776882499456406,-1.0797733068466187,-0.5336581468582153
1684108184016974300,8.189974365234375,0.02553093060851097,-1.1011773347854614,-0.7162013053894043
1684108184026991600,8.19999169921875,0.06724400073289871,-1.063468098640442,-0.6114442944526672
1684108184037009400,8.210009521484375,0.052232567220926285,-1.0561667680740356,-0.3675200939178467
1684108184047026700,8.220026611328125,0.004062640946358442,-0.9391728043556213,-0.12591756880283356
1684108184057044500,8.23004443359375,-0.056382060050964355,-0.6211093068122864,0.06246991828083992
1684108184067061800,8.240061767578124,-0.11563201248645782,-0.17727038264274597,0.2013726830482483
1684108184077079600,8.25007958984375,-0.14927491545677185,0.19086503982543945,0.29607707262039185
1684108184087096600,8.2600966796875,-0.15478533506393433,0.3134908974170685,0.3217495083808899
1684108184097113600,8.270113525390625,-0.13849718868732452,0.23834235966205597,0.2696370482444763
1684108184107131400,8.28013134765625,-0.0945165604352951,0.14718902111053467,0.1857336312532425
1684108184117148700,8.290148681640625,-0.04279904067516327,0.14369255304336548,0.14112381637096405
1684108184127166000,8.300166015625,-0.013065016828477383,0.23700730502605438,0.17728553712368011
1684108184137183200,8.310183349609375,-0.011746219359338284,0.37940147519111633,0.2927844226360321
1684108184147201000,8.320200927734374,-0.023193268105387688,0.5796783566474915,0.4215030372142792
1684108184157218300,8.33021826171875,-0.027135811746120453,0.7936077117919922,0.5344268679618835
1684108184167236000,8.340236083984376,-0.04133063182234764,0.8809993267059326,0.6007886528968811
1684108184177253000,8.350253173828126,-0.0688493400812149,0.7645947337150574,0.6022840142250061
1684108184187271200,8.360271240234376,-0.08950861543416977,0.5286629796028137,0.4992823004722595
1684108184197288000,8.370287841796875,-0.1030646413564682,0.290225088596344,0.28817886114120483
1684108184207306200,8.38030615234375,-0.11162035167217255,0.08410085737705231,0.03839582949876785
1684108184217323000,8.390322998046875,-0.11451148241758347,-0.0669483169913292,-0.1870114505290985
1684108184227341000,8.400341064453125,-0.1257459819316864,-0.16726204752922058,-0.33946773409843445
1684108184237358000,8.410358154296874,-0.14620332419872284,-0.19194555282592773,-0.3881162405014038
1684108184247375400,8.420375244140626,-0.17164260149002075,-0.1996513158082962,-0.30154767632484436
1684108184257393200,8.43039306640625,-0.2048274427652359,-0.30254867672920227,-0.06504673510789871
1684108184267410000,8.440409912109375,-0.2361617088317871,-0.43869486451148987,0.19215646386146545
1684108184277428200,8.45042822265625,-0.25957754254341125,-0.36578816175460815,0.3404058516025543
1684108184287445000,8.460445068359375,-0.2840234339237213,-0.11898674070835114,0.4133358895778656
1684108184297463300,8.47046337890625,-0.3201518952846527,0.16876220703125,0.4814065396785736
1684108184307480000,8.48047998046875,-0.36970987915992737,0.384981244802475,0.5959024429321289
1684108184317498000,8.490498046875,-0.4287225902080536,0.3888510763645172,0.7673903107643127
1684108184327515100,8.50051513671875,-0.504616916179657,0.16319051384925842,0.9225420355796814
1684108184337533200,8.510533203125,-0.5406127572059631,-0.14061836898326874,0.9383444786071777
1684108184347550200,8.52055029296875,-0.4902774691581726,-0.25933000445365906,0.754365086555481
1684108184357568300,8.530568359375,-0.3719194233417511,-0.15363900363445282,0.514062225818634
1684108184367585300,8.540585205078125,-0.2507231533527374,-0.030863448977470398,0.3702809512615204
1684108184377603000,8.55060302734375,-0.16111499071121216,-0.10867675393819809,0.3425563871860504
1684108184387620000,8.5606201171875,-0.11238144338130951,-0.36893415451049805,0.33642148971557617
1684108184397638100,8.57063818359375,-0.0652908980846405,-0.5992816090583801,0.31885820627212524
1684108184407655200,8.5806552734375,-0.012220022268593311,-0.7031362652778625,0.26817408204078674
1684108184417672200,8.590672119140624,0.024355566129088402,-0.705639123916626,0.2063746303319931
1684108184427690200,8.600690185546876,0.015528111718595028,-0.5644056797027588,0.1509123593568802
1684108184437707300,8.610707275390626,-0.04574057459831238,-0.3837631940841675,0.14016224443912506
1684108184447725000,8.62072509765625,-0.11878937482833862,-0.25010162591934204,0.16707471013069153
1684108184457742300,8.630742431640625,-0.16423408687114716,-0.1587378978729248,0.21370746195316315
1684108184467760000,8.640760009765625,-0.17019623517990112,-0.10279268771409988,0.2827836275100708
1684108184477777200,8.650777099609375,-0.1506078839302063,-0.07987591624259949,0.37471380829811096
1684108184487795200,8.660795166015625,-0.13273397088050842,-0.0911826342344284,0.4556289315223694
1684108184497812000,8.67081201171875,-0.1311003863811493,-0.06422345340251923,0.5059136748313904
1684108184507830000,8.680830078125,-0.15198643505573273,0.0006065843626856804,0.49307554960250854
1684108184517847000,8.690846923828126,-0.1819685697555542,0.04943697527050972,0.41013404726982117
1684108184527865000,8.700864990234376,-0.19988243281841278,0.03803395479917526,0.28411445021629333
1684108184537882000,8.710882080078125,-0.20626255869865417,-0.04948018491268158,0.1725461184978485
1684108184547900200,8.720900146484375,-0.21705274283885956,-0.2085569202899933,0.08651135861873627
1684108184557917200,8.730917236328125,-0.22442197799682617,-0.3398750126361847,0.03497812896966934
1684108184567934000,8.740933837890625,-0.22780056297779083,-0.39675837755203247,-0.001617274945601821
1684108184577952300,8.7509521484375,-0.2427068054676056,-0.40599527955055237,-0.03431450203061104
1684108184587969000,8.760968994140624,-0.2657075822353363,-0.36849695444107056,-0.04445241391658783
1684108184597987000,8.770987060546876,-0.2886211574077606,-0.2842680811882019,-0.004471974913030863
1684108184608004000,8.781004150390626,-0.3043269217014313,-0.16106876730918884,0.06714058667421341
1684108184618022100,8.791022216796875,-0.29849860072135925,-0.03590872138738632,0.12941567599773407
1684108184628039200,8.8010390625,-0.2657477557659149,0.12135687470436096,0.1606740802526474
1684108184638057200,8.81105712890625,-0.22760143876075745,0.2120891809463501,0.18234582245349884
1684108184648074200,8.82107421875,-0.1965290904045105,0.13427072763442993,0.2150251269340515
1684108184658092300,8.83109228515625,-0.1862008273601532,0.00004049111157655716,0.21394653618335724
1684108184668109000,8.841109130859374,-0.1982947587966919,-0.06438226997852325,0.14657193422317505
1684108184678127000,8.851127197265624,-0.2299022078514099,-0.012008273974061012,0.03917037695646286
1684108184688144100,8.86114404296875,-0.2544747292995453,0.10091721266508102,-0.06929671764373779
1684108184698162200,8.871162109375,-0.265625923871994,0.14931190013885498,-0.1454380750656128
1684108184708179200,8.88117919921875,-0.2646074593067169,0.06250368803739548,-0.17644722759723663
1684108184718197000,8.891197021484375,-0.2506735324859619,-0.07578840851783752,-0.17990373075008392
1684108184728214300,8.90121435546875,-0.2260381430387497,-0.14315661787986755,-0.15017469227313995
1684108184738231300,8.911231201171875,-0.20551316440105438,-0.09451557695865631,-0.10578406602144241
1684108184748249000,8.9212490234375,-0.17476895451545715,0.03777676448225975,-0.03197234123945236
1684108184758266000,8.93126611328125,-0.14979836344718933,0.1539081633090973,0.05710453540086746
1684108184768284200,8.9412841796875,-0.1340869814157486,0.17170660197734833,0.14435982704162598
1684108184778301200,8.95130126953125,-0.11343390494585037,0.14050288498401642,0.22420458495616913
1684108184788319200,8.9613193359375,-0.0970146656036377,0.11335514485836029,0.2817312479019165
1684108184798336300,8.971336181640625,-0.09548680484294891,0.14328427612781525,0.3246302604675293
1684108184808354000,8.98135400390625,-0.1164538711309433,0.1864280253648758,0.3716427683830261
1684108184818371000,8.99137109375,-0.1361876279115677,0.2152804434299469,0.4300333857536316
1684108184828389000,9.00138916015625,-0.13943666219711304,0.24828189611434937,0.46584203839302063
1684108184838406100,9.01140625,-0.12953796982765198,0.23395860195159912,0.4747372567653656
1684108184848424200,9.021424072265624,-0.11626362800598145,0.1436331570148468,0.4618062376976013
1684108184858441200,9.031441162109376,-0.10667598247528076,0.033224619925022125,0.40942105650901794
1684108184868459300,9.041459228515626,-0.09642025828361511,-0.07713039219379425,0.3281046152114868
1684108184878476000,9.05147607421875,-0.08168152719736099,-0.19929730892181396,0.2575273811817169
1684108184888494300,9.061494384765625,-0.07282191514968872,-0.3448891043663025,0.23100337386131287
1684108184898511000,9.071510986328125,-0.0776025578379631,-0.48487257957458496,0.22602619230747223
1684108184908528000,9.081528076171875,-0.07352157682180405,-0.5849151015281677,0.2269105315208435
1684108184918546200,9.091546142578125,-0.06568016856908798,-0.6072728633880615,0.2232806533575058
1684108184928563200,9.101563232421874,-0.05217328295111656,-0.5375210642814636,0.21041244268417358
1684108184938581200,9.111581298828124,-0.05121215060353279,-0.46740591526031494,0.19771075248718262
1684108184948598300,9.121598388671876,-0.05277577415108681,-0.4345036745071411,0.203776553273201
1684108184958616300,9.1316162109375,-0.0569516122341156,-0.45328375697135925,0.21256205439567566
1684108184968633000,9.141633056640625,-0.07388629019260406,-0.46582913398742676,0.2331959456205368
1684108184978651100,9.151651123046875,-0.08658131211996078,-0.4135262370109558,0.2514079511165619
1684108184988668200,9.161668212890625,-0.0868176817893982,-0.33379650115966797,0.29541856050491333
1684108184998686000,9.17168603515625,-0.1012570783495903,-0.28716614842414856,0.3709109425544739
1684108185008703200,9.181703125,-0.11783856898546219,-0.2547227442264557,0.45185211300849915
1684108185018721000,9.191720947265624,-0.12548796832561493,-0.202509343624115,0.5316745042800903
1684108185028738300,9.20173828125,-0.13084189593791962,-0.13609018921852112,0.5792688727378845
1684108185038756000,9.211756103515626,-0.12790709733963013,-0.04995103180408478,0.5824505686759949
1684108185048773000,9.221773193359375,-0.11658141016960144,0.01250957790762186,0.5539607405662537
1684108185058791200,9.231791259765625,-0.10046236217021942,0.022957690060138702,0.5313614010810852
1684108185068808200,9.24180810546875,-0.09670943021774292,-0.016656920313835144,0.5030050277709961
1684108185078825200,9.2518251953125,-0.10436974465847015,-0.07518734782934189,0.4781132936477661
1684108185088843000,9.261843017578125,-0.11641915887594223,-0.05428791791200638,0.4453340470790863
1684108185098860300,9.2718603515625,-0.13534225523471832,0.003371649421751499,0.40925246477127075
1684108185108878000,9.281878173828124,-0.15097147226333618,0.0006330329924821854,0.38722512125968933
1684108185118895000,9.29189501953125,-0.16928896307945251,-0.07426464557647705,0.36496293544769287
1684108185128913200,9.3019130859375,-0.19186216592788696,-0.17223817110061646,0.321119487285614
1684108185138930400,9.311930419921875,-0.21801386773586273,-0.25402170419692993,0.23108573257923126
1684108185148948200,9.3219482421875,-0.23755738139152527,-0.3468080163002014,0.09712377190589905
1684108185158965200,9.33196533203125,-0.25040286779403687,-0.4640747308731079,-0.057841572910547256
1684108185168983300,9.3419833984375,-0.2594303488731384,-0.5618818998336792,-0.20469005405902863
1684108185179000300,9.352000244140624,-0.27427801489830017,-0.6369023323059082,-0.2864970266819
1684108185189018400,9.362018310546874,-0.2826848030090332,-0.6947506070137024,-0.30780836939811707
1684108185199035100,9.37203515625,-0.28825506567955017,-0.7387034296989441,-0.2806510329246521
1684108185209053200,9.38205322265625,-0.29099270701408386,-0.7259265780448914,-0.2310173511505127
1684108185219070200,9.3920703125,-0.2900978624820709,-0.6490304470062256,-0.18378965556621552
1684108185229088300,9.402088134765625,-0.28216806054115295,-0.5840330123901367,-0.1158885583281517
1684108185239105300,9.412105224609375,-0.27328401803970337,-0.5075920224189758,-0.03470315784215927
1684108185249122300,9.422122314453125,-0.2666070759296417,-0.43928441405296326,0.04175373166799545
1684108185259140400,9.432140380859375,-0.2508465051651001,-0.40995606780052185,0.11892920732498169
1684108185269157000,9.4421572265625,-0.221774622797966,-0.39477643370628357,0.18071284890174866
1684108185279175200,9.452175048828124,-0.19088542461395264,-0.37021198868751526,0.23027081787586212
1684108185289192200,9.462192138671876,-0.16086284816265106,-0.34969666600227356,0.25140878558158875
1684108185299210200,9.472210205078126,-0.13580170273780823,-0.3542221784591675,0.26630356907844543
1684108185309227300,9.482227294921875,-0.09942502528429031,-0.3282305896282196,0.2751164138317108
1684108185319245300,9.492245361328125,-0.07116781920194626,-0.2621093690395355,0.2905765771865845
1684108185329262300,9.502262451171875,-0.05560789257287979,-0.2613934278488159,0.325588196516037
1684108185339280400,9.5122802734375,-0.055088307708501816,-0.3147946000099182,0.37165501713752747
1684108185349297400,9.52229736328125,-0.06107388064265251,-0.3589002788066864,0.39916494488716125
1684108185359315200,9.532315185546874,-0.07893756777048111,-0.40427255630493164,0.40783965587615967
1684108185369332200,9.542332275390624,-0.10949375480413437,-0.398091197013855,0.4018503725528717
1684108185379350300,9.552350341796876,-0.1334960162639618,-0.3471888601779938,0.40405601263046265
1684108185389367300,9.5623671875,-0.15431788563728333,-0.32914113998413086,0.4126207232475281
1684108185399385000,9.572385009765625,-0.16532525420188904,-0.3716990053653717,0.4254329204559326
1684108185409402400,9.58240234375,-0.158821702003479,-0.38915878534317017,0.42064449191093445
1684108185419419400,9.59241943359375,-0.1384573131799698,-0.359063982963562,0.4160792827606201
1684108185429437200,9.602437255859375,-0.13417884707450867,-0.3451422154903412,0.43763765692710876
1684108185439454200,9.6124541015625,-0.14268392324447632,-0.3433704078197479,0.47102251648902893
1684108185449472300,9.62247216796875,-0.17060735821723938,-0.32055822014808655,0.5069339871406555
1684108185459489300,9.6324892578125,-0.20650437474250793,-0.26733332872390747,0.5401111245155334
1684108185469507300,9.64250732421875,-0.21648819744586945,-0.20669575035572052,0.5791853666305542
1684108185479524400,9.6525244140625,-0.20768539607524872,-0.15531431138515472,0.6049557328224182
1684108185489542100,9.662542236328125,-0.18476718664169312,-0.1242644265294075,0.5735073685646057
1684108185499559200,9.67255908203125,-0.15779362618923187,-0.08038271963596344,0.48978474736213684
1684108185509577200,9.6825771484375,-0.15827594697475433,-0.034272659569978714,0.410321444272995
1684108185519594200,9.69259423828125,-0.14683181047439575,0.0252069141715765,0.3720986843109131
1684108185529612300,9.7026123046875,-0.10326073318719864,0.10685586929321289,0.3645669221878052
1684108185539629300,9.71262939453125,-0.0456315241754055,0.1613212525844574,0.3605809807777405
1684108185549647400,9.7226474609375,0.029628245159983635,0.04526388645172119,0.3442470133304596
1684108185559664000,9.7326640625,0.11056889593601227,-0.26904240250587463,0.3028548061847687
1684108185569682400,9.742682373046875,0.14486421644687653,-0.5838348269462585,0.27736765146255493
1684108185579699200,9.75269921875,0.0722145214676857,-0.812138020992279,0.2995328903198242
1684108185589717500,9.762717529296875,-0.10709138214588165,-0.9585333466529846,0.3459171652793884
1684108185599734300,9.772734375,-0.2810831367969513,-1.0313810110092163,0.40426966547966003
1684108185609751300,9.782751220703124,-0.3880830705165863,-0.9813859462738037,0.46009141206741333
1684108185619769300,9.792769287109374,-0.42698225378990173,-0.7918250560760498,0.5624122023582458
1684108185629786400,9.802786376953126,-0.4438862204551697,-0.5005028247833252,0.7061793208122253
1684108185639804400,9.812804443359376,-0.4442886412143707,-0.2710089385509491,0.8378813862800598
1684108185649821200,9.8228212890625,-0.41390690207481384,-0.19541211426258087,0.9200554490089417
1684108185659839500,9.832839599609375,-0.3569839596748352,-0.24840235710144043,0.9040815830230713
1684108185669856300,9.842856201171875,-0.2943114936351776,-0.28769516944885254,0.8125209808349609
1684108185679874300,9.852874267578125,-0.24252046644687653,-0.2988000214099884,0.6957376599311829
1684108185689891300,9.862891357421875,-0.23198576271533966,-0.3224125802516937,0.582517147064209
1684108185699909000,9.8729091796875,-0.2632448971271515,-0.3063827455043793,0.4484488368034363
1684108185709926400,9.882926513671874,-0.3187764585018158,-0.2321978211402893,0.31864577531814575
1684108185719944200,9.892944091796876,-0.3658859133720398,-0.20379947125911713,0.23795758187770844
1684108185729961200,9.902961181640626,-0.40562868118286133,-0.25989657640457153,0.19387482106685638
1684108185739979300,9.912979248046875,-0.4267169237136841,-0.4011008143424988,0.1563229262828827
1684108185749996300,9.922996337890625,-0.3979667127132416,-0.5022762417793274,0.08062965422868729
1684108185760014300,9.933014404296875,-0.3360900282859802,-0.3492630124092102,0.02507958374917507
1684108185770031000,9.943031005859375,-0.23602427542209625,0.05656243860721588,0.0290681142359972
1684108185780049400,9.95304931640625,-0.05374900624155998,0.48840785026550293,0.09033812582492828
1684108185790066200,9.963066162109374,0.15178675949573517,0.697661280632019,0.15431424975395203
1684108185800083200,9.973083251953126,0.30684342980384827,0.4872283935546875,0.12260746210813522
1684108185810101200,9.983101318359376,0.3477669060230255,-0.09281808882951736,-0.10383863747119904
1684108185820118300,9.9931181640625,0.2734450101852417,-0.5456231236457825,-0.3849288821220398
1684108185830136300,10.00313623046875,0.13674388825893402,-0.6249318718910217,-0.5296124219894409
1684108185840153300,10.0131533203125,0.06259775161743164,-0.4431074857711792,-0.49508053064346313
1684108185850171400,10.02317138671875,0.06746473908424377,-0.22354423999786377,-0.3443778157234192
1684108185860188200,10.033188232421875,0.06569133698940277,-0.07869783043861389,-0.1482192575931549
1684108185870206500,10.04320654296875,0.020881569012999535,-0.01612730324268341,0.042211249470710754
1684108185880223200,10.05322314453125,-0.023362858220934868,0.024082966148853302,0.19847169518470764
1684108185890241300,10.0632412109375,-0.036244314163923264,0.06258544325828552,0.32154685258865356
1684108185900258300,10.07325830078125,-0.04447294771671295,0.07051580399274826,0.3935193121433258
1684108185910276000,10.083276123046875,-0.054663676768541336,0.053104668855667114,0.38464680314064026
1684108185920293400,10.09329345703125,-0.074622742831707,0.06881864368915558,0.2770819664001465
1684108185930311200,10.103311279296875,-0.10005606710910797,0.1714080572128296,0.1295510232448578
1684108185940328400,10.113328369140625,-0.06960015743970871,0.29796358942985535,0.06187930703163147
1684108185950346200,10.12334619140625,0.00008881196845322847,0.33473894000053406,0.1052536889910698
1684108185960363300,10.13336328125,0.07405145466327667,0.2857338488101959,0.2148859053850174
1684108185970381300,10.14338134765625,0.1431976854801178,0.1969744861125946,0.3374345302581787
1684108185980398000,10.153398193359376,0.2013976126909256,0.08169262856245041,0.4340801239013672
1684108185990416400,10.16341650390625,0.2388284057378769,-0.03591121733188629,0.47862523794174194
1684108186000433200,10.17343310546875,0.25731685757637024,-0.08948495984077454,0.4513635039329529
1684108186010450400,10.183450439453125,0.22339631617069244,-0.038744375109672546,0.33407649397850037
1684108186020468200,10.19346826171875,0.17328201234340668,0.06856051087379456,0.1719653606414795
1684108186030485500,10.203485595703125,0.13724780082702637,0.12284496426582336,0.023386694490909576
1684108186040503300,10.21350341796875,0.11693400889635086,0.09464634954929352,-0.07251427322626114
1684108186050520000,10.22352001953125,0.10736685246229172,0.019249416887760162,-0.09677157551050186
1684108186060538400,10.233538330078124,0.09366115927696228,-0.03228248283267021,-0.08009113371372223
1684108186070555100,10.24355517578125,0.08567358553409576,-0.0012718434445559978,-0.04774758964776993
1684108186080573400,10.253573486328126,0.0748201385140419,0.07797930389642715,-0.01360932644456625
1684108186090590200,10.263590087890625,0.08358877897262573,0.10505930334329605,0.0037743733264505863
1684108186100608300,10.273608154296875,0.11162786930799484,0.05070871487259865,0.010887942276895046
1684108186110625300,10.283625244140625,0.12858349084854126,-0.036550913006067276,0.00858049001544714
1684108186120643300,10.293643310546875,0.14151526987552643,-0.0994608998298645,-0.00034429520019330084
1684108186130660600,10.30366064453125,0.14611855149269104,-0.12915754318237305,-0.019024772569537163
1684108186140678700,10.3136787109375,0.13994906842708588,-0.11964526772499084,-0.06470117717981339
1684108186150695700,10.32369580078125,0.11976151168346405,-0.1410280466079712,-0.12440869212150574
1684108186160713700,10.333713623046876,0.1045098602771759,-0.22258974611759186,-0.19200745224952698
1684108186170730500,10.34373046875,0.06498356908559799,-0.30878883600234985,-0.25932633876800537
1684108186180748500,10.35374853515625,-0.00383624155074358,-0.31430530548095703,-0.31843653321266174
1684108186190765600,10.363765625,-0.05796230211853981,-0.25323280692100525,-0.3464544713497162
1684108186200782600,10.373782470703125,-0.08795721083879471,-0.2159688025712967,-0.32591351866722107
1684108186210800600,10.383800537109375,-0.1070086732506752,-0.24577665328979492,-0.27352744340896606
1684108186220817700,10.393817626953124,-0.12529580295085907,-0.3141897916793823,-0.21754728257656097
1684108186230835700,10.403835693359374,-0.12956397235393524,-0.3683284819126129,-0.19334109127521515
1684108186240852500,10.4138525390625,-0.12479345500469208,-0.40741464495658875,-0.21267057955265045
1684108186250870500,10.42387060546875,-0.12059890478849411,-0.45117151737213135,-0.27339258790016174
1684108186260887600,10.433887451171875,-0.12179093807935715,-0.46133628487586975,-0.3396131694316864
1684108186270905600,10.443905517578125,-0.12377505004405975,-0.42840176820755005,-0.375733882188797
1684108186280922600,10.453922607421875,-0.1266384720802307,-0.3736666440963745,-0.351815789937973
1684108186290940400,10.4639404296875,-0.12238163501024246,-0.316426157951355,-0.27660560607910156
1684108186300957700,10.473957763671875,-0.08819171041250229,-0.26620611548423767,-0.16131816804409027
1684108186310975500,10.4839755859375,-0.0429244190454483,-0.1605803519487381,-0.03320388123393059
1684108186320992500,10.493992431640624,-0.00214423518627882,0.09295976161956787,0.09041792154312134
1684108186331010600,10.504010498046876,0.051173850893974304,0.40206143260002136,0.21295048296451569
1684108186341027600,10.514027587890626,0.10659396648406982,0.5572901368141174,0.32097870111465454
1684108186351045600,10.524045654296875,0.13786664605140686,0.5176514387130737,0.39002525806427
1684108186361062400,10.5340625,0.14777414500713348,0.3903537094593048,0.39650577306747437
1684108186371080700,10.544080810546875,0.15414611995220184,0.2713626027107239,0.33175498247146606
1684108186381097500,10.554097412109375,0.15787000954151154,0.2172359973192215,0.23643486201763153
1684108186391115800,10.56411572265625,0.14041228592395782,0.24472737312316895,0.1385105401277542
1684108186401132500,10.574132568359374,0.08140970021486282,0.309128999710083,0.0720265805721283
1684108186411149600,10.584149658203126,0.0267779603600502,0.36134037375450134,0.0384516604244709
1684108186421167600,10.594167724609376,0.014978825114667416,0.36537131667137146,0.013517813757061958
1684108186431184600,10.6041845703125,0.0028510824777185917,0.29116958379745483,0.015046816319227219
1684108186441202700,10.61420263671875,-0.025258051231503487,0.13572221994400024,0.024999314919114113
1684108186451219500,10.624219482421875,-0.06200696900486946,-0.027935586869716644,0.0352131649851799
1684108186461237800,10.63423779296875,-0.10878192633390427,-0.11299402266740799,0.03015821985900402
1684108186471254500,10.644254638671875,-0.14689433574676514,-0.10519716143608093,-0.002003514440730214
1684108186481272600,10.6542724609375,-0.1568300575017929,-0.06603485345840454,-0.039188701659440994
1684108186491289600,10.66428955078125,-0.13350316882133484,-0.025203794240951538,-0.060015685856342316
1684108186501307400,10.674307373046876,-0.09378325194120407,0.008008740842342377,-0.04900966212153435
1684108186511324700,10.68432470703125,-0.053581565618515015,0.029080837965011597,-0.022732408717274666
1684108186521342500,10.694342529296875,-0.02707964926958084,0.009579306468367577,0.016446685418486595
1684108186531359700,10.70435986328125,-0.02397788129746914,-0.059345442801713943,0.03392099589109421
1684108186541377500,10.71437744140625,-0.03964419290423393,-0.14383450150489807,0.03038405254483223
1684108186551394600,10.72439453125,-0.0499415285885334,-0.17526236176490784,-0.003841997357085347
1684108186561412600,10.73441259765625,-0.05914248526096344,-0.13318096101284027,-0.054664965718984604
1684108186571429400,10.744429443359374,-0.05770651996135712,-0.09953688830137253,-0.09340027719736099
1684108186581447700,10.75444775390625,-0.031204072758555412,-0.10272415727376938,-0.10202892124652863
1684108186591464400,10.76446435546875,-0.01140774879604578,-0.12608088552951813,-0.08630936592817307
1684108186601482800,10.774482666015626,-0.003347158432006836,-0.16689488291740417,-0.036249127238988876
1684108186611499500,10.78449951171875,-0.011849816888570786,-0.14867807924747467,0.011253160424530506
1684108186621516500,10.7945166015625,-0.04266392067074776,-0.042294103652238846,0.04763033986091614
1684108186631534600,10.80453466796875,-0.06770522892475128,0.07540996372699738,0.07262737303972244
1684108186641551600,10.814551513671875,-0.06922270357608795,0.13281786441802979,0.08027863502502441
1684108186651569700,10.824569580078125,-0.05347006395459175,0.12256959080696106,0.08053625375032425
1684108186661586400,10.83458642578125,-0.04812110215425491,0.0766175389289856,0.07214170694351196
1684108186671604700,10.844604736328124,-0.05948328599333763,0.019358335062861443,0.05159604176878929
1684108186681621500,10.85462158203125,-0.07389338314533234,-0.014059009030461311,0.03586847707629204
1684108186691639600,10.8646396484375,-0.08498158305883408,-0.019213736057281494,0.03238861262798309
1684108186701656600,10.874656494140625,-0.0881185233592987,-0.011835981160402298,0.04591374471783638
1684108186711674400,10.88467431640625,-0.06864321231842041,0.038644589483737946,0.07792822271585464
1684108186721691600,10.894691650390625,-0.022167857736349106,0.13457246124744415,0.1264273226261139
1684108186731709400,10.90470947265625,0.029173782095313072,0.21746955811977386,0.16617457568645477
1684108186741726700,10.914726806640624,0.04752695560455322,0.2742907702922821,0.1702289581298828
1684108186751744500,10.92474462890625,0.04058588668704033,0.27628812193870544,0.14262768626213074
1684108186761761800,10.93476171875,0.025226373225450516,0.23039041459560394,0.09003503620624542
1684108186771779600,10.944779541015626,0.01911749131977558,0.15099351108074188,0.018165836110711098
1684108186781796400,10.95479638671875,0.0161062553524971,0.06921129673719406,-0.05318983644247055
1684108186791814700,10.964814697265625,0.023128153756260872,-0.014770956709980965,-0.12202483415603638
1684108186801831400,10.97483154296875,0.03209421783685684,-0.08116276562213898,-0.1769554615020752
1684108186811849500,10.984849365234375,0.051750391721725464,-0.12256418913602829,-0.21506574749946594
1684108186821866500,10.994866455078125,0.06660257279872894,-0.15282489359378815,-0.2291187047958374
1684108186831883800,11.0048837890625,0.06468880921602249,-0.19645242393016815,-0.2298286259174347
1684108186841901600,11.014901611328124,0.056052982807159424,-0.258716344833374,-0.22192436456680298
1684108186851918300,11.02491845703125,0.048029787838459015,-0.3328680396080017,-0.20771506428718567
1684108186861936600,11.0349365234375,0.04884897544980049,-0.39071324467658997,-0.20282018184661865
1684108186871953400,11.044953369140625,0.06713192909955978,-0.397076815366745,-0.22927486896514893
1684108186881971700,11.0549716796875,0.08810459077358246,-0.3734998404979706,-0.2794136703014374
1684108186891988500,11.064988525390625,0.07592596858739853,-0.3643956482410431,-0.33471110463142395
1684108186902006500,11.075006591796875,0.023738926276564598,-0.3916858434677124,-0.3679902255535126
1684108186912023600,11.0850234375,-0.030590400099754333,-0.4147912561893463,-0.3686502277851105
1684108186922041600,11.09504150390625,-0.07494508475065231,-0.3839648962020874,-0.3547346889972687
1684108186932058600,11.10505859375,-0.1227397695183754,-0.27621179819107056,-0.3270830810070038
1684108186942076700,11.11507666015625,-0.15350006520748138,-0.16105006635189056,-0.2768300473690033
1684108186952093700,11.12509375,-0.15487805008888245,-0.0835312008857727,-0.19238804280757904
1684108186962111500,11.135111572265625,-0.1301756203174591,-0.044179003685712814,-0.08100958168506622
1684108186972128500,11.14512841796875,-0.08324522525072098,-0.013450739905238152,0.02903854474425316
1684108186982146600,11.155146484375,-0.036833256483078,0.04401787742972374,0.12137912958860397
1684108186992163600,11.16516357421875,-0.009931178763508797,0.10279197990894318,0.17163324356079102
1684108187002181600,11.175181640625,0.006322626024484634,0.11895495653152466,0.17917585372924805
1684108187012198400,11.185198486328124,0.00901279877871275,0.08734271675348282,0.15909028053283691
1684108187022216400,11.195216552734376,-0.011437881737947464,0.034363120794296265,0.12840960919857025
1684108187032233500,11.2052333984375,-0.03424395993351936,0.01184610091149807,0.11684058606624603
1684108187042250800,11.215250732421875,-0.035885266959667206,0.06455591320991516,0.11575587838888168
1684108187052268500,11.2252685546875,-0.031526174396276474,0.15016090869903564,0.13719013333320618
1684108187062285600,11.23528564453125,-0.012938642874360085,0.22833694517612457,0.17863477766513824
1684108187072303600,11.2453037109375,0.022406533360481262,0.266524076461792,0.2272021323442459
1684108187082320400,11.2553203125,0.058358144015073776,0.2439679354429245,0.2746460735797882
1684108187092338700,11.265338623046874,0.07506301999092102,0.1671464592218399,0.29594293236732483
1684108187102355500,11.27535546875,0.06925466656684875,0.08507796376943588,0.2724807560443878
1684108187112373500,11.28537353515625,0.04030827060341835,0.038436681032180786,0.2010566145181656
1684108187122390500,11.295390625,0.0006633916636928916,0.016112465411424637,0.08943316340446472
1684108187132408000,11.305407958984375,-0.049219124019145966,-0.017121201381087303,-0.01952482759952545
1684108187142425300,11.31542529296875,-0.09436582773923874,-0.02792751044034958,-0.09940075129270554
1684108187152443100,11.325443115234375,-0.12416244298219681,-0.007387607824057341,-0.13130034506320953
1684108187162460200,11.335460205078125,-0.13896800577640533,0.01576538011431694,-0.11632192879915237
1684108187172478200,11.345478271484374,-0.12953774631023407,0.0406298004090786,-0.07083932310342789
1684108187182495200,11.3554951171875,-0.08882945030927658,0.07063457369804382,-0.004548185039311647
1684108187192513300,11.36551318359375,-0.03512706607580185,0.12629134953022003,0.05948183685541153
1684108187202530000,11.375530029296876,0.008950646966695786,0.1884881556034088,0.11539943516254425
1684108187212548400,11.38554833984375,0.053725797683000565,0.22297120094299316,0.1674518883228302
1684108187222565000,11.395565185546875,0.11326449364423752,0.17232373356819153,0.22327494621276855
1684108187232583200,11.405583251953125,0.1793700009584427,0.04576534777879715,0.2715775668621063
1684108187242600200,11.41560009765625,0.18857334554195404,-0.03474121168255806,0.2668403387069702
1684108187252618000,11.425617919921875,0.15418505668640137,0.023752816021442413,0.20350942015647888
1684108187262635300,11.43563525390625,0.14842410385608673,0.18356165289878845,0.11216457933187485
1684108187272653000,11.445653076171874,0.17561960220336914,0.30240049958229065,0.029151273891329765
1684108187282670300,11.45567041015625,0.19563858211040497,0.2844420075416565,-0.030599940568208694
1684108187292687000,11.46568701171875,0.18086972832679749,0.16584381461143494,-0.07457289844751358
1684108187302705400,11.475705322265625,0.1455857753753662,0.017283111810684204,-0.12127995491027832
1684108187312722200,11.48572216796875,0.07938716560602188,-0.07586227357387543,-0.16635048389434814
1684108187322740000,11.495739990234375,0.03460397943854332,-0.08981537073850632,-0.20510827004909515
1684108187332757200,11.50575732421875,0.06092365086078644,-0.04843669757246971,-0.2229284644126892
1684108187342775000,11.515775146484375,0.0962776467204094,-0.037449561059474945,-0.2129642367362976
1684108187352792300,11.525792236328124,0.09230218082666397,-0.07457632571458817,-0.17544794082641602
1684108187362810000,11.53581005859375,0.03199436143040657,-0.13336214423179626,-0.1406468152999878
1684108187372827400,11.545827392578126,-0.009380043484270573,-0.10901916772127151,-0.11162092536687851
1684108187382845200,11.55584521484375,-0.02696463093161583,0.001450355164706707,-0.10059863328933716
1684108187392862200,11.5658623046875,-0.03624289855360985,0.1335020363330841,-0.07134309411048889
1684108187402880300,11.57588037109375,-0.017156291753053665,0.2151215374469757,-0.008205673657357693
1684108187412897000,11.58589697265625,0.028162986040115356,0.23194286227226257,0.09087031334638596
1684108187422915300,11.595915283203125,0.08989905565977097,0.21566055715084076,0.2021385133266449
1684108187432932000,11.60593212890625,0.14979372918605804,0.2089272141456604,0.3061833381652832
1684108187442950100,11.6159501953125,0.17746850848197937,0.20151562988758087,0.37294238805770874
1684108187452967200,11.62596728515625,0.13397972285747528,0.179605171084404,0.3833081126213074
1684108187462985200,11.635985107421876,0.07241596281528473,0.1482054442167282,0.3331719934940338
1684108187473002200,11.646002197265625,0.02100052498281002,0.09122426807880402,0.23632514476776123
1684108187483020300,11.656020263671875,0.0024646578822284937,0.02059856615960598,0.12424307316541672
1684108187493037300,11.666037353515625,-0.00548520078882575,-0.04119876027107239,0.019663671031594276
1684108187503054000,11.67605419921875,-0.0049477750435471535,-0.11175920814275742,-0.07712545990943909
1684108187513072000,11.686072021484375,0.014477478340268135,-0.20713010430335999,-0.16470234096050262
1684108187523089200,11.696089111328124,0.03046390227973461,-0.3043365478515625,-0.2270866334438324
1684108187533107200,11.706107177734374,0.012166147120296955,-0.3706318736076355,-0.277652770280838
1684108187543124200,11.716124267578126,-0.014906216412782669,-0.3831140995025635,-0.3133702874183655
1684108187553142300,11.726142333984376,-0.04487966001033783,-0.34016475081443787,-0.3257845938205719
1684108187563159300,11.7361591796875,-0.07291048765182495,-0.2725902497768402,-0.2997921407222748
1684108187573177000,11.746177001953125,-0.1005108505487442,-0.1824796348810196,-0.24056144058704376
1684108187583194400,11.7561943359375,-0.10397269576787949,-0.07695400714874268,-0.1553136557340622
1684108187593212200,11.766212158203125,-0.06712695211172104,0.051240723580121994,-0.06614594161510468
1684108187603229200,11.776229248046874,0.0012220136122778058,0.15629203617572784,0.022056082263588905
1684108187613247200,11.786247314453124,0.05919918790459633,0.18979337811470032,0.08626792579889297
1684108187623264000,11.796263916015626,0.0936564952135086,0.13165044784545898,0.12340917438268661
1684108187633282300,11.8062822265625,0.1087859645485878,0.03717257082462311,0.1158994808793068
1684108187643299000,11.816299072265625,0.10598564893007278,-0.020547982305288315,0.06009027734398842
1684108187653317000,11.826317138671875,0.07626466453075409,-0.03629259392619133,-0.02529945597052574
1684108187663334100,11.836334228515625,0.03358537331223488,-0.07854976505041122,-0.10489228367805481
1684108187673352200,11.846352294921875,0.0018560722237452865,-0.1412016749382019,-0.15672802925109863
1684108187683369200,11.856369140625,-0.007338757626712322,-0.14906972646713257,-0.1793110966682434
1684108187693387300,11.86638720703125,-0.0209153164178133,-0.10201079398393631,-0.18398088216781616
1684108187703404300,11.876404296875,-0.04651947692036629,-0.06897640973329544,-0.15332283079624176
1684108187713422300,11.88642236328125,-0.059071242809295654,-0.05160408467054367,-0.0857134461402893
1684108187723439000,11.896439208984376,-0.06240551918745041,0.007638996466994286,0.004602336790412664
1684108187733457200,11.90645703125,-0.04914436116814613,0.09903877973556519,0.09336932003498077
1684108187743474200,11.91647412109375,-0.03258588910102844,0.1744387298822403,0.17403487861156464
1684108187753491200,11.9264912109375,-0.008516913279891014,0.22261524200439453,0.21638436615467072
1684108187763509200,11.93650927734375,0.005192507058382034,0.24631232023239136,0.22745752334594727
1684108187773526300,11.9465263671875,0.0008990115020424128,0.2647964060306549,0.21875767409801483
1684108187783544300,11.95654443359375,0.00206254655495286,0.2686409652233124,0.2046400010585785
1684108187793561300,11.966561279296876,0.0018702970119193196,0.2502908706665039,0.19588904082775116
1684108187803579100,11.9765791015625,0.002801337977871299,0.2200019508600235,0.19098536670207977
1684108187813596200,11.98659619140625,0.01135372556746006,0.18970350921154022,0.18660907447338104
1684108187823614200,11.9966142578125,0.019975444301962852,0.1606644093990326,0.17123889923095703
1684108187833631200,12.00663134765625,0.024691849946975708,0.14483174681663513,0.14415039122104645
1684108187843649000,12.01664892578125,0.03360385075211525,0.14311587810516357,0.10758572071790695
1684108187853666300,12.026666259765625,0.047092340886592865,0.1345711201429367,0.06460949778556824
1684108187863684000,12.03668408203125,0.050532881170511246,0.10041581839323044,0.027891164645552635
1684108187873701000,12.046701171875,0.04150019586086273,0.03696058690547943,0.010423394851386547
1684108187883719200,12.05671923828125,0.03229444846510887,-0.00874857883900404,0.009887300431728363
1684108187893736200,12.066736083984376,0.014070376753807068,-0.022834837436676025,0.0012770313769578934
1684108187903754200,12.076754150390625,-0.001551459077745676,-0.023125920444726944,-0.004458618350327015
1684108187913771300,12.086771240234375,-0.003737914375960827,-0.03441373258829117,-0.020008282735943794
1684108187923789300,12.096789306640625,0.0015892067458480597,-0.043478600680828094,-0.029949065297842026
1684108187933806000,12.10680615234375,-0.004059427417814732,-0.029459897428750992,-0.04172014817595482
1684108187943824400,12.116824462890625,-0.015039375051856041,0.01150458212941885,-0.030447784811258316
1684108187953841200,12.126841064453124,-0.03857346251606941,0.07558183372020721,0.008745956234633923
1684108187963859200,12.136859130859374,-0.05380141735076904,0.144057035446167,0.06856241822242737
1684108187973876200,12.146876220703126,-0.048060864210128784,0.19368813931941986,0.14521288871765137
1684108187983894000,12.15689404296875,-0.009324654936790466,0.22234374284744263,0.19936427474021912
1684108187993911300,12.166911376953125,0.03778772056102753,0.2447057068347931,0.21157293021678925
1684108188003928000,12.176927978515625,0.06823217868804932,0.2634298503398895,0.18951024115085602
1684108188013946400,12.1869462890625,0.07415587455034256,0.2814331650733948,0.14605100452899933
1684108188023963100,12.196963134765625,0.06634455174207687,0.2832624912261963,0.10088805109262466
1684108188033981200,12.206981201171875,0.04559909552335739,0.25239744782447815,0.06278373301029205
1684108188043998200,12.216998291015624,0.02025645412504673,0.1863212287425995,0.034491103142499924
1684108188054016000,12.22701611328125,0.0065743084996938705,0.10432372987270355,0.012369985692203045
1684108188064033300,12.237033203125,0.005625423975288868,0.03407726809382439,-0.005708084441721439
1684108188074051000,12.247051025390626,0.016767950728535652,0.005902268923819065,-0.02027805894613266
1684108188084068400,12.257068359375,0.022070836275815964,0.0032500270754098892,-0.04905617982149124
1684108188094086100,12.267086181640625,0.017398111522197723,-0.007920865900814533,-0.07816611975431442
1684108188104103200,12.277103271484375,-0.009504343383014202,-0.06611999124288559,-0.10974162817001343
1684108188114121200,12.287121337890625,-0.048209298402071,-0.15179015696048737,-0.14078611135482788
1684108188124138200,12.29713818359375,-0.09252269566059113,-0.23556362092494965,-0.17317786812782288
1684108188134156000,12.307156005859374,-0.11161801218986511,-0.2762991487979889,-0.20253077149391174
1684108188144173000,12.317173095703126,-0.10300295054912567,-0.27217790484428406,-0.2113461047410965
1684108188154191000,12.327191162109376,-0.06648487597703934,-0.21992847323417664,-0.1840936243534088
1684108188164208000,12.3372080078125,-0.019496064633131027,-0.16350620985031128,-0.12076686322689056
1684108188174226000,12.347225830078125,0.011021857149899006,-0.141265869140625,-0.048850852996110916
1684108188184243000,12.357242919921875,0.019761020317673683,-0.14991794526576996,0.012165099382400513
1684108188194261000,12.367260986328125,0.001689664670266211,-0.155478373169899,0.0259845107793808
1684108188204278000,12.377278076171875,-0.035922158509492874,-0.1283215880393982,0.01721765100955963
1684108188214296000,12.387296142578125,-0.07654327899217606,-0.06816752254962921,0.009028341621160507
1684108188224313000,12.39731298828125,-0.09851568937301636,-0.007584333885461092,0.025386275723576546
1684108188234331100,12.4073310546875,-0.08888708800077438,0.04268096387386322,0.04923834279179573
1684108188244348200,12.41734814453125,-0.055201299488544464,0.06321180611848831,0.0771179050207138
