time,seconds_elapsed,z,y,x
1683588369930584300,0.023584228515625,0.008107157424092293,-0.007236481178551912,-0.002197369933128357
1683588369940591400,0.03359130859375,0.00812073890119791,-0.015903739258646965,0.002506038872525096
1683588369950598400,0.043598388671875,0.011046708561480045,-0.01663258485496044,0.00005220528692007065
1683588369960606500,0.0536064453125,0.0026300540193915367,-0.012475923635065556,-0.010718416422605515
1683588369970613500,0.063613525390625,-0.006122658960521221,-0.014043847098946571,-0.014938654378056526
1683588369980620300,0.073620361328125,-0.015224277973175049,-0.01355542242527008,-0.01700579933822155
1683588369990628600,0.083628662109375,-0.025746965780854225,-0.007665950804948807,-0.023067306727170944
1683588370000635400,0.093635498046875,-0.03135478496551514,-0.001311382744461298,-0.035348739475011826
1683588370010642200,0.10364208984375,-0.03434760868549347,0.010893047787249088,-0.04615025967359543
1683588370020650500,0.113650390625,-0.03278140723705292,0.03694835305213928,-0.06802226603031158
1683588370030657300,0.1236572265625,-0.028554720804095268,0.07890282571315765,-0.09711284935474396
1683588370040664300,0.133664306640625,-0.03006979450583458,0.12247826159000397,-0.1407410204410553
1683588370050672400,0.14367236328125,-0.025696318596601486,0.17589899897575378,-0.1848585605621338
1683588370060679400,0.153679443359375,-0.024067794904112816,0.25380071997642517,-0.23461546003818512
1683588370070686500,0.1636865234375,-0.008291278034448624,0.30151382088661194,-0.2886330187320709
1683588370080694500,0.173694580078125,0.010824359953403473,0.33580920100212097,-0.3367645740509033
1683588370090701300,0.183701416015625,0.034144096076488495,0.3571320176124573,-0.36033329367637634
1683588370100708600,0.19370849609375,0.046007148921489716,0.39718863368034363,-0.39228296279907227
1683588370110716400,0.20371630859375,0.03477896749973297,0.4197462201118469,-0.4421437680721283
1683588370120723500,0.213723388671875,0.035517461597919464,0.4567958414554596,-0.48417431116104126
1683588370130730500,0.22373046875,0.006952431984245777,0.5995500683784485,-0.5115542411804199
1683588370140738600,0.233738525390625,-0.030660457909107208,0.6119624972343445,-0.5997933149337769
1683588370150745300,0.243745361328125,-0.06202797219157219,0.5432237982749939,-0.6300140023231506
1683588370160752400,0.25375244140625,-0.05404514819383621,0.5123228430747986,-0.5697527527809143
1683588370170760400,0.263760498046875,0.013191941194236279,0.5520187616348267,-0.5281180739402771
1683588370180767200,0.273767333984375,0.0890992283821106,0.5177471041679382,-0.5655490756034851
1683588370190774500,0.2837744140625,0.13880419731140137,0.37010833621025085,-0.6124731302261353
1683588370200782300,0.2937822265625,0.1540827453136444,0.16589073836803436,-0.590973973274231
1683588370210789400,0.303789306640625,0.12759995460510254,-0.1397368311882019,-0.41206037998199463
1683588370220796400,0.31379638671875,0.1136188879609108,-0.32114577293395996,-0.15525494515895844
1683588370230804500,0.323804443359375,0.09401323646306992,-0.33513399958610535,0.014118602499365807
1683588370240811300,0.333811279296875,0.06403829902410507,-0.21750803291797638,0.09030525386333466
1683588370250818600,0.343818603515625,0.02530558966100216,-0.04255121946334839,0.11181856691837311
1683588370260825300,0.353825439453125,-0.028766166418790817,0.06077224016189575,0.05971648171544075
1683588370270833400,0.36383349609375,-0.07093411684036255,0.20550183951854706,-0.02522222325205803
1683588370280840400,0.37384033203125,-0.08616819977760315,0.3690904974937439,-0.1338951736688614
1683588370290847200,0.38384716796875,-0.06405466049909592,0.4439777135848999,-0.24587489664554596
1683588370300855300,0.393855224609375,-0.006721061654388905,0.45130354166030884,-0.32280269265174866
1683588370310862300,0.4038623046875,0.06619495898485184,0.4601118862628937,-0.39344698190689087
1683588370320869400,0.413869384765625,0.13956691324710846,0.4848766326904297,-0.4675065577030182
1683588370330877200,0.423877197265625,0.21688728034496307,0.5101838707923889,-0.5431180000305176
1683588370340884500,0.433884521484375,0.29739516973495483,0.4945513904094696,-0.6189837455749512
1683588370350891300,0.443891357421875,0.3681454360485077,0.48090437054634094,-0.6622785329818726
1683588370360899300,0.4538994140625,0.4099173843860626,0.485081285238266,-0.683920681476593
1683588370370906400,0.46390625,0.40387046337127686,0.4999561309814453,-0.6832919716835022
1683588370380913400,0.473913330078125,0.39357760548591614,0.5559549331665039,-0.6606801152229309
1683588370390921500,0.48392138671875,0.38978391885757446,0.591776967048645,-0.6362955570220947
1683588370400928500,0.493928466796875,0.3852565586566925,0.597835898399353,-0.6092937588691711
1683588370410935300,0.503935302734375,0.36762210726737976,0.5671529173851013,-0.5725097060203552
1683588370420942800,0.51394287109375,0.34772297739982605,0.49721673130989075,-0.527021586894989
1683588370430949600,0.52394970703125,0.3284122049808502,0.4218050539493561,-0.4783492088317871
1683588370440956700,0.533956787109375,0.2853129506111145,0.3546598553657532,-0.4300314784049988
1683588370450964700,0.54396484375,0.2660963237285614,0.3523203432559967,-0.39014002680778503
1683588370460971500,0.553971435546875,0.2720564901828766,0.32483625411987305,-0.37879815697669983
1683588370470978800,0.563978759765625,0.27195873856544495,0.2897481322288513,-0.3737688660621643
1683588370480986600,0.573986572265625,0.2541525959968567,0.22993755340576172,-0.3716753423213959
1683588370490993700,0.58399365234375,0.21126344799995422,0.1662714183330536,-0.3694954812526703
1683588370501000700,0.594000732421875,0.1654735952615738,0.11352270841598511,-0.3592771887779236
1683588370511008800,0.6040087890625,0.13711972534656525,0.04613509774208069,-0.3405327796936035
1683588370521015600,0.614015625,0.12130215018987656,-0.006040486507117748,-0.3224131762981415
1683588370531022800,0.62402294921875,0.12311597913503647,-0.032090745866298676,-0.3052884340286255
1683588370541030700,0.63403076171875,0.15110500156879425,-0.00639097485691309,-0.27475929260253906
1683588370551037700,0.64403759765625,0.18335990607738495,0.031108204275369644,-0.23247283697128296
1683588370561044700,0.654044677734375,0.12680448591709137,0.03067251294851303,-0.18451356887817383
1683588370571052800,0.664052734375,0.06308700889348984,0.07941168546676636,-0.1237557977437973
1683588370581059600,0.6740595703125,0.031959451735019684,0.1266724020242691,-0.08197798579931259
1683588370591066600,0.684066650390625,0.011268905363976955,0.1876944601535797,-0.04006977006793022
1683588370601074700,0.69407470703125,0.004057864658534527,0.20592673122882843,-0.010790709406137466
1683588370611081700,0.704081787109375,0.003360357601195574,0.1912803202867508,0.023193471133708954
1683588370621088800,0.7140888671875,-0.009046245366334915,0.17581374943256378,0.06633055955171585
1683588370631096600,0.7240966796875,-0.03133639693260193,0.1554936170578003,0.11350096017122269
1683588370641104000,0.734103759765625,-0.05697278305888176,0.10055901110172272,0.16772504150867462
1683588370651110700,0.744110595703125,-0.07495471835136414,0.025464946404099464,0.23111851513385773
1683588370661118700,0.75411865234375,-0.10876834392547607,-0.021808292716741562,0.27021586894989014
1683588370671125800,0.764125732421875,-0.1519392877817154,-0.01982206664979458,0.29648953676223755
1683588370681132800,0.7741328125,-0.15306127071380615,0.03891688212752342,0.3064638674259186
1683588370691140600,0.784140625,-0.1201232522726059,0.11095593869686127,0.3059423565864563
1683588370701148000,0.79414794921875,-0.10529477149248123,0.11645962297916412,0.30313539505004883
1683588370711154700,0.80415478515625,-0.1174212321639061,0.10824677348136902,0.31273019313812256
1683588370721162800,0.814162841796875,-0.15134671330451965,0.08684614300727844,0.3236323595046997
1683588370731169800,0.824169677734375,-0.2008434236049652,0.07234153151512146,0.3452731966972351
1683588370741176600,0.834176513671875,-0.23131531476974487,0.049390412867069244,0.3628140985965729
1683588370751184600,0.8441845703125,-0.24939094483852386,0.0025002534966915846,0.3558715879917145
1683588370761191700,0.854191650390625,-0.2607400119304657,-0.047969311475753784,0.33969688415527344
1683588370771198700,0.86419873046875,-0.26428547501564026,-0.16941285133361816,0.33001142740249634
1683588370781206500,0.87420654296875,-0.29950234293937683,-0.13388681411743164,0.28025081753730774
1683588370791213800,0.8842138671875,-0.46754011511802673,-0.18136724829673767,0.22298838198184967
1683588370801220600,0.894220703125,-0.6520809531211853,-0.2988280951976776,0.227727472782135
1683588370811228700,0.904228759765625,-0.7061667442321777,-0.26043763756752014,0.2790953814983368
1683588370821235700,0.914235595703125,-0.7060357332229614,-0.2659764885902405,0.30175381898880005
1683588370831242500,0.924242431640625,-0.6727867126464844,-0.28049054741859436,0.31614190340042114
1683588370841250600,0.93425048828125,-0.6100854873657227,-0.3377045691013336,0.33868396282196045
1683588370851257600,0.944257568359375,-0.5656576156616211,-0.3559577465057373,0.3723909556865692
1683588370861264600,0.9542646484375,-0.5434433817863464,-0.3379867374897003,0.4327440559864044
1683588370871271700,0.964271728515625,-0.5140380859375,-0.3184008300304413,0.5081698298454285
1683588370881279700,0.97427978515625,-0.4657685458660126,-0.27903106808662415,0.572163462638855
1683588370891286500,0.98428662109375,-0.3925665020942688,-0.22580277919769287,0.6073305606842041
1683588370901294600,0.994294677734375,-0.30705347657203674,-0.19724303483963013,0.6262909770011902
1683588370911301600,1.004301513671875,-0.19664786756038666,-0.20053908228874207,0.5942415595054626
1683588370921308700,1.01430859375,-0.10202255845069885,-0.20799300074577332,0.5033851265907288
1683588370931316700,1.024316650390625,-0.05153166502714157,-0.20255732536315918,0.4065079092979431
1683588370941323800,1.03432373046875,0.023174526169896126,-0.13849711418151855,0.2929653525352478
1683588370951330600,1.04433056640625,0.10370666533708572,-0.0469096414744854,0.16358257830142975
1683588370961337600,1.054337646484375,0.20058393478393555,0.04417020082473755,0.006213728804141283
1683588370971345700,1.064345703125,0.32529816031455994,0.12776075303554535,-0.15873104333877563
1683588370981352400,1.0743525390625,0.43219104409217834,0.2322152554988861,-0.30977967381477356
1683588370991359700,1.08435986328125,0.46027350425720215,0.29944145679473877,-0.4134157598018646
1683588371001367600,1.094367431640625,0.33332061767578125,0.3227875232696533,-0.44154006242752075
1683588371011374600,1.10437451171875,0.018128104507923126,0.23261643946170807,-0.32896360754966736
1683588371021381600,1.114381591796875,-0.21074049174785614,0.0008183582685887814,-0.08829455077648163
1683588371031389700,1.1243896484375,-0.25003087520599365,-0.2519185543060303,0.16176505386829376
1683588371041396700,1.134396728515625,-0.22666724026203156,-0.4208223521709442,0.34309619665145874
1683588371051403800,1.14440380859375,-0.20949330925941467,-0.5101872682571411,0.462574303150177
1683588371061411600,1.15441162109375,-0.1969016194343567,-0.5261550545692444,0.5169360637664795
1683588371071419000,1.1644189453125,-0.19868595898151398,-0.5019540190696716,0.5252424478530884
1683588371081425700,1.17442578125,-0.18160364031791687,-0.4745540916919708,0.4927082061767578
1683588371091433700,1.184433837890625,-0.19019237160682678,-0.4941549301147461,0.4516366422176361
1683588371101440800,1.194440673828125,-0.18019326031208038,-0.5456261038780212,0.4169265925884247
1683588371111447600,1.204447509765625,-0.15875345468521118,-0.5566418170928955,0.37963175773620605
1683588371121455600,1.21445556640625,-0.14260432124137878,-0.5001290440559387,0.33537349104881287
1683588371131462700,1.224462646484375,-0.1309468150138855,-0.4181444048881531,0.2800723612308502
1683588371141469700,1.2344697265625,-0.10026507824659348,-0.29668933153152466,0.20396827161312103
1683588371151477500,1.2444775390625,-0.07019299268722534,-0.16881009936332703,0.10589573532342911
1683588371161484800,1.25448486328125,-0.03944333642721176,-0.06678013503551483,0.00442903209477663
1683588371171491600,1.26449169921875,-0.01740780659019947,0.005426069721579552,-0.09005691856145859
1683588371181499600,1.274499755859375,-0.01316752191632986,0.04602915421128273,-0.16482968628406525
1683588371191506700,1.284506591796875,-0.022742876783013344,0.03370997682213783,-0.20859885215759277
1683588371201513700,1.294513671875,-0.054814260452985764,-0.004403851926326752,-0.22017961740493774
1683588371211521500,1.304521484375,-0.08539003133773804,-0.0300083439797163,-0.2248517870903015
1683588371221528800,1.31452880859375,-0.08955547958612442,-0.01447785273194313,-0.23334114253520966
1683588371231535600,1.32453564453125,-0.08999598771333694,0.055677443742752075,-0.25241804122924805
1683588371241543700,1.334543701171875,-0.07714623212814331,0.13966715335845947,-0.2891262471675873
1683588371251550700,1.34455078125,-0.050799597054719925,0.2038474828004837,-0.3146294951438904
1683588371261557500,1.3545576171875,-0.007943212054669857,0.21268998086452484,-0.31089866161346436
1683588371271565600,1.364565673828125,0.0126643693074584,0.09460487961769104,-0.17935746908187866
1683588371281572600,1.374572509765625,0.03296830877661705,-0.1582561433315277,-0.036748651415109634
1683588371291579600,1.38457958984375,0.018441805616021156,-0.4467798173427582,0.10327693819999695
1683588371301587500,1.39458740234375,-0.0310682225972414,-0.6384650468826294,0.25108158588409424
1683588371311594800,1.4045947265625,-0.06226606294512749,-0.6736840009689331,0.34537866711616516
1683588371321601500,1.4146015625,-0.0789763405919075,-0.6133095622062683,0.35586273670196533
1683588371331608800,1.42460888671875,-0.08427098393440247,-0.49038541316986084,0.29799267649650574
1683588371341616600,1.43461669921875,-0.0825154259800911,-0.35901302099227905,0.19131629168987274
1683588371351623700,1.444623779296875,-0.07605909556150436,-0.23582729697227478,0.06788606941699982
1683588371361630700,1.454630615234375,-0.07277568429708481,-0.15984970331192017,-0.032493263483047485
1683588371371638800,1.464638671875,-0.06932130455970764,-0.09882769733667374,-0.08980920910835266
1683588371381645600,1.4746455078125,-0.06375370174646378,-0.03276053071022034,-0.10703933238983154
1683588371391652600,1.484652587890625,-0.07892545312643051,0.00430239737033844,-0.08769625425338745
1683588371401660700,1.49466064453125,-0.09070674329996109,0.020699745044112206,-0.043503496795892715
1683588371411667700,1.504667724609375,-0.09947917610406876,-0.010249773971736431,0.005781608633697033
1683588371421675800,1.51467578125,-0.10406407713890076,-0.05493601784110069,0.052520617842674255
1683588371431683800,1.524683837890625,-0.09636411815881729,-0.09226763993501663,0.07885582000017166
1683588371441690600,1.534690673828125,-0.08343447744846344,-0.09296831488609314,0.09998480975627899
1683588371451698000,1.544697998046875,-0.06778386235237122,-0.06903001666069031,0.1137147769331932
1683588371461705700,1.554705810546875,-0.04993775486946106,-0.046262115240097046,0.12196844816207886
1683588371471712800,1.564712646484375,-0.035300444811582565,-0.0415273942053318,0.1260969489812851
1683588371481719800,1.5747197265625,-0.02378173917531967,-0.03415390104055405,0.11910081654787064
1683588371491728000,1.584727783203125,-0.014936655759811401,-0.03997139632701874,0.11114585399627686
1683588371501734700,1.594734619140625,-0.00554022379219532,-0.060781072825193405,0.11583967506885529
1683588371511742000,1.604741943359375,0.0019174490589648485,-0.08377950638532639,0.11731734126806259
1683588371521749800,1.614749755859375,-0.003403546754270792,-0.10012412816286087,0.11893441528081894
1683588371531756800,1.6247568359375,-0.012455889955163002,-0.10825659334659576,0.11899616569280624
1683588371541763800,1.634763916015625,-0.02344462461769581,-0.12003575265407562,0.11606588959693909
1683588371551772000,1.64477197265625,-0.031887371093034744,-0.11798162758350372,0.11567515879869461
1683588371561778700,1.65477880859375,-0.03488023206591606,-0.08504338562488556,0.10303313285112381
1683588371571785700,1.66478564453125,-0.04223751276731491,-0.03533845394849777,0.0856528952717781
1683588371581793800,1.674793701171875,-0.03445469215512276,0.006162384524941444,0.06886326521635056
1683588371591800600,1.684800537109375,-0.018947409465909004,0.021308938041329384,0.05422143265604973
1683588371601808000,1.694807861328125,-0.015694625675678253,0.021504679694771767,0.03975008428096771
1683588371611815700,1.704815673828125,-0.01823575049638748,0.0013208482414484024,0.017581850290298462
1683588371621822700,1.71482275390625,-0.03314758837223053,-0.026242868974804878,0.008294342085719109
1683588371631829800,1.724829833984375,-0.048953697085380554,-0.04866243898868561,0.011918902397155762
1683588371641837800,1.734837890625,-0.05944309011101723,-0.1041019931435585,0.02864142321050167
1683588371651844900,1.744844970703125,-0.06332066655158997,-0.16309675574302673,0.05983731150627136
1683588371661851600,1.7548515625,0.003520948812365532,-0.22312307357788086,0.06306719779968262
1683588371671858700,1.764858642578125,0.0375121645629406,-0.24506312608718872,0.03489593788981438
1683588371681866800,1.77486669921875,-0.0036323396489024162,-0.09675516188144684,0.013695044443011284
1683588371691873800,1.784873779296875,-0.0041044908575713634,0.0180046446621418,-0.02535564824938774
1683588371701880600,1.794880615234375,0.004841333720833063,0.07855454087257385,-0.055760424584150314
1683588371711889000,1.804888916015625,0.009092801250517368,0.08857157081365585,-0.07186304032802582
1683588371721895700,1.814895751953125,-0.009828691370785236,0.08664210885763168,-0.05344541743397713
1683588371731902700,1.82490283203125,-0.021108796820044518,0.046881478279829025,-0.01651277206838131
1683588371741910800,1.834910888671875,-0.027644461020827293,-0.013463091105222702,0.04010896012187004
1683588371751917800,1.844917724609375,-0.043699849396944046,-0.07320032268762589,0.09226389229297638
1683588371761924900,1.8549248046875,-0.06315024197101593,-0.1242283508181572,0.13035722076892853
1683588371771933000,1.864932861328125,-0.06600058078765869,-0.16311194002628326,0.1493552029132843
1683588371781939700,1.874939697265625,-0.03691353648900986,-0.18763379752635956,0.15555131435394287
1683588371791946800,1.88494677734375,-0.0292159803211689,-0.15398357808589935,0.14537717401981354
1683588371801954800,1.894954833984375,-0.023900577798485756,-0.08437840640544891,0.1214822307229042
1683588371811961600,1.904961669921875,-0.036379605531692505,0.010576743632555008,0.0935356616973877
1683588371821969000,1.914968994140625,-0.06750103086233139,0.1071309819817543,0.05488919839262962
1683588371831976700,1.924976806640625,-0.06037703901529312,0.13505998253822327,0.026438985019922256
1683588371841983700,1.934983642578125,-0.04389020800590515,0.13570179045200348,0.021935313940048218
1683588371851990800,1.94499072265625,-0.03503124788403511,0.11151488870382309,0.027585864067077637
1683588371861998800,1.954998779296875,-0.028664162382483482,0.06297877430915833,0.041533902287483215
1683588371872005600,1.965005615234375,-0.02296370081603527,0.01118539273738861,0.053709082305431366
1683588371882013000,1.975012939453125,-0.021432116627693176,-0.02029050886631012,0.058749109506607056
1683588371892020700,1.985020751953125,-0.015856502577662468,-0.029034828767180443,0.049898967146873474
1683588371902027800,1.99502783203125,-0.0035947770811617374,-0.013452940620481968,0.027281275019049644
1683588371912034800,2.005034912109375,0.007519699167460203,0.008898856118321419,0.008971847593784332
1683588371922041600,2.01504150390625,0.015360577963292599,0.022220253944396973,0.003904651617631316
1683588371932049700,2.025049560546875,0.02145732194185257,0.02109433524310589,0.006370970048010349
1683588371942056700,2.035056640625,0.02122988924384117,0.0028775143437087536,0.012331657111644745
1683588371952063700,2.045063720703125,0.021322572603821754,-0.011022746562957764,0.01929837092757225
1683588371962071600,2.055071533203125,0.02184188924729824,-0.02212546393275261,0.01701950468122959
1683588371972078800,2.065078857421875,0.0206376314163208,-0.029439477249979973,0.010562554001808167
1683588371982085600,2.075085693359375,0.01763012446463108,-0.032876551151275635,0.0026737386360764503
1683588371992093700,2.08509375,0.009502111934125423,-0.029238402843475342,0.00479339063167572
1683588372002100700,2.095100830078125,0.008637117221951485,-0.03836372494697571,0.012514693662524223
1683588372012107800,2.105107666015625,0.004970521666109562,-0.04775296896696091,0.01576610468327999
1683588372022115600,2.115115478515625,0.000653271097689867,-0.04418274015188217,0.020056191831827164
1683588372032123000,2.125122802734375,0.00671888655051589,-0.03923352062702179,0.01389257051050663
1683588372042129700,2.135129638671875,0.012578107416629791,-0.03148132562637329,0.005175512284040451
1683588372052137700,2.1451376953125,0.018605906516313553,-0.02207743562757969,-0.006559706758707762
1683588372062144800,2.155144775390625,0.01744767650961876,-0.01678936742246151,-0.013166285119950771
1683588372072151600,2.165151611328125,0.015190902166068554,-0.014843347482383251,-0.017458805814385414
1683588372082159900,2.175159912109375,0.013177020475268364,-0.01829613372683525,-0.02357235737144947
1683588372092166700,2.185166748046875,0.010454736649990082,-0.01642792671918869,-0.027079474180936813
1683588372102173700,2.195173583984375,0.012138387188315392,-0.0072685182094573975,-0.03231125324964523
1683588372112181800,2.205181640625,0.01971484161913395,-0.00636444054543972,-0.03398634493350983
1683588372122188800,2.215188720703125,0.01948980614542961,-0.0033710473217070103,-0.02318456582725048
1683588372132195600,2.225195556640625,0.01436027605086565,0.001766128814779222,-0.011235683225095272
1683588372142204000,2.235203857421875,0.009130625985562801,0.002884656423702836,0.0016369721852242947
1683588372152210700,2.245210693359375,0.0054125613532960415,-0.007393026724457741,0.014328572899103165
1683588372162217700,2.2552177734375,0.013205503113567829,0.005140874534845352,0.029316842555999756
1683588372172225800,2.265225830078125,0.023300746455788612,0.02059839479625225,0.04168616235256195
1683588372182232800,2.27523291015625,0.0319821871817112,0.03208184614777565,0.04330965504050255
1683588372192239900,2.285239990234375,0.028403684496879578,0.038374487310647964,0.03912198916077614
1683588372202246700,2.29524658203125,0.022867506369948387,0.012427043169736862,0.03135860711336136
1683588372212254700,2.305254638671875,0.015391451306641102,-0.020494170486927032,0.025372395291924477
1683588372222261800,2.31526171875,0.00870478618890047,-0.0423632487654686,0.03307745233178139
1683588372232268800,2.325268798828125,0.0049979668110609055,-0.030718985944986343,0.05029942840337753
1683588372242276600,2.335276611328125,0.008260339498519897,-0.012203890830278397,0.06082690507173538
1683588372252284000,2.345283935546875,0.01539919339120388,-0.003655018750578165,0.05716361105442047
1683588372262290700,2.355290771484375,0.017409082502126694,-0.0032563433051109314,0.05444053187966347
1683588372272298800,2.365298828125,0.023714642971754074,0.0037945322692394257,0.05417246371507645
1683588372282305800,2.375305908203125,0.026003362610936165,0.009031638503074646,0.05412425845861435
1683588372292312800,2.385312744140625,0.02468561939895153,0.008229542523622513,0.0446162074804306
1683588372302320600,2.395320556640625,0.02672852948307991,0.015744183212518692,0.021772675216197968
1683588372312328000,2.405327880859375,0.02858077548444271,0.02526824176311493,-0.00855015404522419
1683588372322334700,2.415334716796875,0.02442304790019989,0.04170793294906616,-0.03591706231236458
1683588372332342800,2.4253427734375,0.02058570273220539,0.053151194006204605,-0.0526653416454792
1683588372342349800,2.435349853515625,0.015138739719986916,0.05263880267739296,-0.054314639419317245
1683588372352356600,2.445356689453125,0.004907138179987669,0.044903725385665894,-0.05216474086046219
1683588372362364700,2.45536474609375,-0.005606222897768021,0.04518628865480423,-0.0451185517013073
1683588372372371700,2.465371826171875,-0.016106262803077698,0.03841451182961464,-0.04151647165417671
1683588372382378800,2.475378662109375,-0.029204487800598145,0.025467555969953537,-0.03198528662323952
1683588372392386600,2.485386474609375,-0.03726186603307724,0.016332177445292473,-0.018442125990986824
1683588372402393900,2.495393798828125,-0.02912617102265358,0.012115593999624252,-0.012854548171162605
1683588372412400600,2.505400634765625,-0.01596667245030403,0.016848815605044365,-0.017956899479031563
1683588372422407200,2.5154072265625,-0.002467375248670578,0.0310173649340868,-0.027737624943256378
1683588372432415000,2.5254150390625,0.010853725485503674,0.06060640141367912,-0.03915721923112869
1683588372442422300,2.53542236328125,0.01880326122045517,0.07536830008029938,-0.05483764410018921
1683588372452429000,2.545428955078125,0.019328180700540543,0.08429578691720963,-0.07487984001636505
1683588372462437000,2.55543701171875,0.02375568449497223,0.08998296409845352,-0.08532395958900452
1683588372472444200,2.565444091796875,0.026674238964915276,0.08011282980442047,-0.07575662434101105
1683588372482451000,2.575450927734375,0.019148945808410645,0.06883914023637772,-0.05830812454223633
1683588372492459000,2.585458984375,0.005529824644327164,0.056777749210596085,-0.043377723544836044
1683588372502466000,2.595466064453125,-0.011252351105213165,0.03645915910601616,-0.03578212112188339
1683588372512473000,2.60547314453125,-0.02584625780582428,0.022122297435998917,-0.030733788385987282
1683588372522481000,2.61548095703125,-0.034490346908569336,0.0012524358462542295,-0.027641592547297478
1683588372532488200,2.62548828125,-0.03589027002453804,-0.007769315503537655,-0.024798719212412834
1683588372542495000,2.635494873046875,-0.03560797497630119,-0.011059118434786797,-0.023136373609304428
1683588372552503000,2.6455029296875,-0.03609408065676689,-0.00610251072794199,-0.02517836168408394
1683588372562510000,2.655510009765625,-0.035098057240247726,0.007229006849229336,-0.03582461550831795
1683588372572517000,2.66551708984375,-0.044363491237163544,0.020843949168920517,-0.05066271871328354
1683588372582525000,2.67552490234375,-0.06247618421912193,0.04026265814900398,-0.06373697519302368
1683588372592532200,2.6855322265625,-0.07757388800382614,0.06674617528915405,-0.07515421509742737
1683588372602539000,2.6955390625,-0.08514738082885742,0.0908384621143341,-0.07579416781663895
1683588372612547000,2.705547119140625,-0.08130043745040894,0.1089489758014679,-0.07215838134288788
1683588372622554000,2.71555419921875,-0.06351691484451294,0.11167552322149277,-0.06105487421154976
1683588372632561000,2.725560791015625,-0.031192809343338013,0.10092279314994812,-0.04418351501226425
1683588372642568200,2.735568115234375,-0.007082679308950901,0.07683263719081879,-0.028966479003429413
1683588372652576000,2.745575927734375,0.012039096094667912,0.05563861504197121,-0.01633986458182335
1683588372662583000,2.7555830078125,0.02294660359621048,0.035783153027296066,-0.0060366252437233925
1683588372672590000,2.765590087890625,0.022168166935443878,0.020699650049209595,-0.0012073637917637825
1683588372682598100,2.77559814453125,0.015339557081460953,0.012170345522463322,-0.010150524787604809
1683588372692605000,2.78560498046875,0.01537362765520811,0.01674026809632778,-0.02358769252896309
1683588372702612200,2.7956123046875,0.018394185230135918,0.030538903549313545,-0.0394366979598999
1683588372712620000,2.8056201171875,0.030644508078694344,0.052100732922554016,-0.05476650595664978
1683588372722627000,2.815626953125,0.04410092905163765,0.05261951684951782,-0.060343433171510696
1683588372732634000,2.825634033203125,0.055392950773239136,0.04462321847677231,-0.06307190656661987
1683588372742642200,2.83564208984375,0.06372598558664322,0.049114640802145004,-0.07180015742778778
1683588372752649000,2.84564892578125,0.08221182972192764,0.047371041029691696,-0.07786630839109421
1683588372762656000,2.855656005859375,0.1107366755604744,0.04714866727590561,-0.08043918758630753
1683588372772664000,2.8656640625,0.13115674257278442,0.028357964009046555,-0.08121420443058014
1683588372782670800,2.8756708984375,0.13734619319438934,0.009238865226507187,-0.0826384648680687
1683588372792678100,2.88567822265625,0.13742530345916748,-0.015952318906784058,-0.07529418915510178
1683588372802686000,2.89568603515625,0.1347794383764267,-0.03949785977602005,-0.0777387022972107
1683588372812693000,2.90569287109375,0.11906465888023376,-0.061004407703876495,-0.09614468365907669
1683588372822700000,2.915699951171875,0.11512770503759384,-0.04851231724023819,-0.10086753219366074
1683588372832707000,2.92570703125,0.14015156030654907,-0.04991111904382706,-0.12348910421133041
1683588372842715100,2.935715087890625,0.15557605028152466,-0.05480174720287323,-0.1398121565580368
1683588372852722200,2.94572216796875,0.18734808266162872,-0.08145076781511307,-0.15902887284755707
1683588372862729000,2.95572900390625,0.221738800406456,-0.11925167590379715,-0.18361331522464752
1683588372872737300,2.9657373046875,0.24074795842170715,-0.1296745389699936,-0.20817828178405762
1683588372882744000,2.975744140625,0.2409287840127945,-0.12944817543029785,-0.22593864798545837
1683588372892751000,2.985751220703125,0.23333314061164856,-0.1269065886735916,-0.24089717864990234
1683588372902759200,2.99575927734375,0.2085399180650711,-0.10666975378990173,-0.28094446659088135
1683588372912766000,3.005765869140625,0.17117977142333984,-0.07759595662355423,-0.33734047412872314
1683588372922773200,3.015773193359375,0.15179674327373505,-0.05879510939121246,-0.4153721332550049
1683588372932781000,3.025781005859375,0.13514795899391174,-0.0688009262084961,-0.5060105919837952
1683588372942788000,3.0357880859375,0.12274614721536636,-0.10738267004489899,-0.5863536596298218
1683588372952795100,3.045795166015625,0.11838500201702118,-0.20778468251228333,-0.6082754135131836
1683588372962803200,3.05580322265625,0.12254512310028076,-0.3468911647796631,-0.5684683918952942
1683588372972810000,3.06581005859375,0.13458842039108276,-0.4831724464893341,-0.48979148268699646
1683588372982817000,3.075817138671875,0.14610207080841064,-0.5866463780403137,-0.41564643383026123
1683588372992825000,3.0858251953125,0.1429188996553421,-0.6456257700920105,-0.3741353452205658
1683588373002832000,3.095831787109375,0.13339810073375702,-0.6722893118858337,-0.38778483867645264
1683588373012839200,3.105839111328125,0.14132466912269592,-0.6995889544487,-0.45384782552719116
1683588373022846000,3.115845947265625,0.21512752771377563,-0.7684530019760132,-0.5321458578109741
1683588373032854000,3.12585400390625,0.2764488458633423,-0.8252623677253723,-0.5650793313980103
1683588373042861000,3.135861083984375,0.3707521855831146,-0.8196194171905518,-0.5594056844711304
1683588373052868000,3.1458681640625,0.4591682255268097,-0.78568035364151,-0.5505250692367554
1683588373062876000,3.1558759765625,0.5089887976646423,-0.763267457485199,-0.5781276226043701
1683588373072883200,3.16588330078125,0.5131344795227051,-0.7673730850219727,-0.6680581569671631
1683588373082890000,3.175889892578125,0.4718346893787384,-0.7729374766349792,-0.7707120776176453
1683588373092898000,3.18589794921875,0.4670391082763672,-0.7492635846138,-0.8635041117668152
1683588373102905000,3.195905029296875,0.4614267647266388,-0.7399004101753235,-0.9632210731506348
1683588373112912000,3.205911865234375,0.4141261875629425,-0.7517331838607788,-1.0487112998962402
1683588373122920000,3.215919921875,0.37590715289115906,-0.7403694987297058,-1.1061631441116333
1683588373132927000,3.225927001953125,0.37734732031822205,-0.6890682578086853,-1.160705327987671
1683588373142934000,3.23593408203125,0.42321547865867615,-0.6393938660621643,-1.2158432006835938
1683588373152941800,3.24594189453125,0.46970492601394653,-0.6408437490463257,-1.2631820440292358
1683588373162949000,3.25594921875,0.5252997279167175,-0.5842185616493225,-1.2883495092391968
1683588373172956000,3.265955810546875,0.6070739030838013,-0.47202324867248535,-1.3180875778198242
1683588373182963200,3.275963134765625,0.732085108757019,-0.534141480922699,-1.3888927698135376
1683588373192971000,3.285970947265625,1.194288730621338,-1.3421913385391235,-1.866998553276062
1683588373202978000,3.29597802734375,1.3920929431915283,-1.4688835144042969,-2.137857437133789
1683588373212985000,3.305985107421875,1.299694538116455,-1.5668013095855713,-2.192352056503296
1683588373222993200,3.3159931640625,1.0998538732528687,-1.6146003007888794,-2.0898525714874268
1683588373233000000,3.326,0.9070705771446228,-1.7604751586914062,-1.8842211961746216
1683588373243007000,3.336007080078125,0.7058504223823547,-2.021230697631836,-1.6372274160385132
1683588373253015000,3.34601513671875,0.5010439157485962,-2.387486457824707,-1.3748685121536255
1683588373263021800,3.356021728515625,0.45941662788391113,-2.868253469467163,-1.1503416299819946
1683588373273029000,3.366029052734375,0.9678942561149597,-3.104722023010254,-1.0956155061721802
1683588373283037000,3.376036865234375,1.283117413520813,-3.4787378311157227,-1.123065710067749
1683588373293044000,3.3860439453125,1.4560478925704956,-0.8341441750526428,0.25536131858825684
1683588373303051000,3.396051025390625,1.4556671380996704,-0.8292945623397827,0.6141868829727173
1683588373313059000,3.40605908203125,1.4102938175201416,-0.659600555896759,0.24403829872608185
1683588373323066000,3.416066162109375,1.5338530540466309,-0.3203732371330261,-0.34333518147468567
1683588373333073200,3.4260732421875,1.6799228191375732,-0.2737767696380615,-0.8093011975288391
1683588373343080000,3.436079833984375,1.7688052654266357,-0.33365342020988464,-1.0846943855285645
1683588373353088300,3.446088134765625,1.7796945571899414,-0.4492547810077667,-1.2792918682098389
1683588373363095000,3.456094970703125,1.7783424854278564,-0.8490713834762573,-1.3668138980865479
1683588373373101800,3.466101806640625,1.7477039098739624,-1.5930968523025513,-1.2843798398971558
1683588373383110100,3.476110107421875,1.3210277557373047,-2.0373687744140625,-1.143171787261963
1683588373393117000,3.486116943359375,-0.06115618348121643,-1.5461093187332153,-1.161383032798767
1683588373403124000,3.4961240234375,-2.0787646770477295,-0.9869926571846008,-1.2436795234680176
1683588373413132000,3.506132080078125,-1.3898869752883911,-1.2056331634521484,-1.2331223487854004
1683588373423139000,3.51613916015625,-0.38835325837135315,-1.792487621307373,-0.9237871766090393
1683588373433146000,3.52614599609375,-0.08741769939661026,-1.4799977540969849,-0.6617497801780701
1683588373443154200,3.536154296875,0.04742586985230446,-1.1052297353744507,-0.6289681196212769
1683588373453161200,3.5461611328125,0.5848383903503418,-0.9643384218215942,-0.923465371131897
1683588373463168300,3.556168212890625,0.6379421353340149,-1.1416736841201782,-1.3276644945144653
1683588373473175000,3.566175048828125,0.6525634527206421,-1.1676100492477417,-1.6247432231903076
1683588373483183000,3.57618310546875,0.5343211889266968,-1.1523187160491943,-2.0170886516571045
1683588373493190100,3.586190185546875,0.26819899678230286,-1.0110422372817993,-2.491180658340454
1683588373503197200,3.596197265625,-0.0036519463174045086,-0.6179566979408264,-2.8723907470703125
1683588373513205000,3.606205078125,-0.2940003573894501,-0.1032286286354065,-3.073960542678833
1683588373523212300,3.61621240234375,-0.39823541045188904,0.3864779472351074,-3.0502374172210693
1683588373533219000,3.626218994140625,-0.2596467435359955,0.7664816975593567,-2.7304911613464355
1683588373543227100,3.63622705078125,0.04636908322572708,0.6765779256820679,-2.0877466201782227
1683588373553234200,3.646234130859375,0.4254799783229828,0.439927875995636,-1.2921398878097534
1683588373563241200,3.6562412109375,0.8213271498680115,-0.12207342684268951,-0.531693160533905
1683588373573249000,3.6662490234375,1.3236632347106934,-0.6182615756988525,0.11134490370750427
1683588373583256300,3.67625634765625,1.9234133958816528,-0.9525005221366882,0.7049142122268677
1683588373593263000,3.68626318359375,2.4267637729644775,-1.4056651592254639,1.1145045757293701
1683588373603271200,3.696271240234375,2.8125057220458984,-1.7936331033706665,1.3282842636108398
1683588373613278200,3.7062783203125,3.080018997192383,-1.9909905195236206,1.4460731744766235
1683588373623285000,3.716284912109375,3.204531192779541,-2.0292129516601562,1.4809738397598267
1683588373633292300,3.726292236328125,3.1331448554992676,-1.9841450452804565,1.4438323974609375
1683588373643300000,3.736300048828125,2.9318759441375732,-1.8250526189804077,1.3901795148849487
1683588373653307100,3.74630712890625,2.6474602222442627,-1.6394842863082886,1.3820935487747192
1683588373663314200,3.756314208984375,2.3912134170532227,-1.4158998727798462,1.4165064096450806
1683588373673322200,3.766322265625,2.2827413082122803,-1.1080998182296753,1.3871088027954102
1683588373683329000,3.7763291015625,2.214782476425171,-0.9269401431083679,1.2812944650650024
1683588373693336300,3.78633642578125,2.16750431060791,-0.9517770409584045,1.110156536102295
1683588373703344000,3.79634423828125,2.171546459197998,-1.0088316202163696,0.9061208963394165
1683588373713351200,3.80635107421875,2.266249656677246,-1.111708164215088,0.6868985295295715
1683588373723358200,3.816358154296875,2.4502015113830566,-1.1819332838058472,0.4424152672290802
1683588373733366300,3.8263662109375,2.525007963180542,-1.3882708549499512,0.1113600805401802
1683588373743373000,3.836373046875,2.4043407440185547,-1.4534940719604492,-0.3043114244937897
1683588373753380000,3.846380126953125,2.2115979194641113,-1.1708019971847534,-0.6626095175743103
1683588373763387100,3.85638720703125,1.8688764572143555,-0.7575881481170654,-0.8734644651412964
1683588373773395000,3.86639501953125,1.4483155012130737,-0.3977092504501343,-1.0600662231445312
1683588373783402200,3.87640234375,0.9410544633865356,-0.2225760668516159,-1.2037080526351929
1683588373793409000,3.886408935546875,0.4175347089767456,-0.10876595228910446,-1.2872731685638428
1683588373803417000,3.8964169921875,-0.03966745734214783,-0.002756434725597501,-1.293845772743225
1683588373813424000,3.906424072265625,-0.37250056862831116,-0.009551210328936577,-1.259081244468689
1683588373823431200,3.91643115234375,-0.581754744052887,-0.03645552694797516,-1.222708821296692
1683588373833439200,3.926439208984375,-0.7135087251663208,-0.0025936374440789223,-1.218712568283081
1683588373843446300,3.9364462890625,-0.8414433002471924,0.07362975925207138,-1.2737915515899658
1683588373853453000,3.946453125,-0.9594221115112305,0.10442192107439041,-1.4167208671569824
1683588373863461400,3.95646142578125,-1.1000498533248901,0.15165840089321136,-1.6113877296447754
1683588373873468200,3.96646826171875,-1.3203022480010986,-0.003730541095137596,-1.7863924503326416
1683588373883475000,3.976474853515625,-1.4668642282485962,-0.2828388512134552,-1.8944255113601685
1683588373893482200,3.986482177734375,-1.4990243911743164,-0.41864803433418274,-1.8987913131713867
1683588373903490000,3.996489990234375,-1.491053581237793,-0.35525521636009216,-1.8297139406204224
1683588373913497000,4.0064970703125,-1.5115097761154175,-0.2256302833557129,-1.8317923545837402
1683588373923504000,4.016504150390625,-1.6128432750701904,-0.07785814255475998,-1.9711241722106934
1683588373933512200,4.02651220703125,-1.8137388229370117,0.19698242843151093,-2.2490627765655518
1683588373943519200,4.036519287109375,-1.95790696144104,0.5259960293769836,-2.6138598918914795
1683588373953526000,4.046526123046875,-2.1067965030670166,0.4571588337421417,-2.9701731204986572
1683588373963534000,4.0565341796875,-2.1651899814605713,0.13988447189331055,-3.1312124729156494
1683588373973541000,4.066541015625,-2.202911853790283,-0.020151136443018913,-3.0053555965423584
1683588373983548200,4.076548095703125,-2.370065212249756,0.07189702987670898,-2.788053512573242
1683588373993556000,4.086555908203125,-2.6165122985839844,0.2292078733444214,-2.552312135696411
1683588374003563300,4.096563232421875,-2.791224241256714,0.32502174377441406,-2.3467209339141846
1683588374013570000,4.106570068359375,-2.789613723754883,0.15813875198364258,-2.1153042316436768
1683588374023578000,4.116578125,-2.652482271194458,-0.2705516219139099,-1.808775544166565
1683588374033585200,4.126585205078125,-2.4018239974975586,-0.604310154914856,-1.399108648300171
1683588374043592200,4.13659228515625,-2.094769239425659,-0.7788121700286865,-0.9065045714378357
1683588374053599200,4.14659912109375,-1.806542992591858,-0.8297253251075745,-0.4546908140182495
1683588374063607300,4.156607177734375,-1.643231749534607,-0.790083110332489,-0.23092882335186005
1683588374073614000,4.166614013671875,-1.6521214246749878,-0.6416622996330261,-0.2886618673801422
1683588374083621000,4.17662109375,-1.8099792003631592,-0.3512221872806549,-0.5356415510177612
1683588374093629200,4.186629150390625,-2.070767402648926,-0.01732570305466652,-0.835050106048584
1683588374103636000,4.196635986328125,-2.318476438522339,0.3807638883590698,-1.111576795578003
1683588374113643300,4.206643310546875,-2.3498616218566895,0.8284536600112915,-1.20076322555542
1683588374123651000,4.216651123046875,-2.26157283782959,1.1393123865127563,-1.1917058229446411
1683588374133658000,4.226658203125,-2.0123860836029053,1.2875524759292603,-1.0867059230804443
1683588374143665200,4.2366650390625,-1.5431963205337524,1.2601161003112793,-0.6238548159599304
1683588374153673200,4.246673095703125,-0.8275223970413208,1.233053207397461,0.6156155467033386
1683588374163680000,4.256679931640625,-0.2459215670824051,0.6780176162719727,1.915817141532898
1683588374173687300,4.266687255859375,-0.010079718194901943,0.18721383810043335,2.3368711471557617
1683588374183695000,4.276695068359375,0.021694190800189972,-0.12149367481470108,2.138000011444092
1683588374193702100,4.2867021484375,-0.11146357655525208,-0.10938093811273575,1.8763798475265503
1683588374203709200,4.296709228515625,-0.2710726857185364,0.24414436519145966,1.6883087158203125
1683588374213716000,4.306716064453125,-0.3876810669898987,0.7947980165481567,1.431771993637085
1683588374223724000,4.31672412109375,-0.4127824306488037,1.3774526119232178,1.0854949951171875
1683588374233731000,4.32673095703125,-0.4148562252521515,1.2735594511032104,0.6052485704421997
1683588374243738000,4.336738037109375,-0.25542792677879333,0.583528459072113,0.19241440296173096
1683588374253746000,4.346745849609375,0.11222946643829346,-0.009294642135500908,0.10084240138530731
1683588374263753200,4.356753173828125,0.45404940843582153,-0.4910980463027954,0.4145457446575165
1683588374273760000,4.366760009765625,0.45091959834098816,-0.4000745713710785,0.6879603862762451
1683588374283768000,4.37676806640625,0.09569466859102249,0.004542432725429535,0.8330867290496826
1683588374293775000,4.386775146484375,-0.3232482671737671,1.0139206647872925,0.5962597727775574
1683588374303782100,4.3967822265625,-0.5933926701545715,2.539982795715332,0.21288737654685974
1683588374313790200,4.406790283203125,-1.141693115234375,2.9296088218688965,-0.4741976261138916
1683588374323797200,4.41679736328125,-1.5237523317337036,2.324511766433716,-1.069665789604187
1683588374333804000,4.426803955078125,-1.6486401557922363,2.020521402359009,-1.2042592763900757
1683588374343811000,4.43681103515625,-1.5688145160675049,1.4573123455047607,-1.1536695957183838
1683588374353819100,4.446819091796875,-1.3522673845291138,0.7641878724098206,-0.9126681685447693
1683588374363826000,4.456825927734375,-1.0100677013397217,0.527609646320343,-0.40920764207839966
1683588374373833200,4.466833251953125,-0.5490564107894897,0.5459827184677124,0.14024148881435394
1683588374383841000,4.476841064453125,-0.012307454831898212,0.3390173017978668,0.5007578730583191
1683588374393848000,4.48684814453125,0.3134256601333618,0.014808951877057552,0.8127089738845825
1683588374403855000,4.496855224609375,0.5086926221847534,-0.021713372319936752,0.8904226422309875
1683588374413863200,4.50686328125,0.47098466753959656,0.05060088261961937,0.8120545148849487
1683588374423869700,4.51686962890625,0.24872738122940063,0.007405208423733711,0.621577262878418
1683588374433876700,4.526876708984375,0.1439513862133026,0.09838337451219559,0.33844512701034546
1683588374443883800,4.5368837890625,0.059013597667217255,0.13054238259792328,0.10184668749570847
1683588374453891800,4.546891845703125,-0.07542438060045242,0.21553732454776764,-0.08585172146558762
1683588374463898600,4.556898681640625,-0.2596839666366577,0.4314163625240326,-0.21530558168888092
1683588374473905700,4.56690576171875,-0.46581020951271057,0.6277653574943542,-0.2749195992946625
1683588374483913700,4.576913818359375,-0.6158993244171143,0.5960196852684021,-0.3869777023792267
1683588374493920500,4.58692041015625,-0.6658647060394287,0.3805178105831146,-0.4906294047832489
1683588374503927800,4.596927734375,-0.5864572525024414,0.3095400333404541,-0.529008686542511
1683588374513935600,4.606935546875,-0.4396137595176697,0.41879838705062866,-0.5211470723152161
1683588374523942700,4.616942626953125,-0.29946064949035645,0.7558112740516663,-0.43571850657463074
1683588374533949700,4.62694970703125,-0.17307478189468384,1.0803067684173584,-0.32912570238113403
1683588374543956700,4.636956787109375,-0.07836664468050003,1.221606731414795,-0.2596733868122101
1683588374553964500,4.646964599609375,-0.0418570414185524,1.124830961227417,-0.3042319416999817
1683588374563971800,4.656971923828125,-0.028549760580062866,0.9565050601959229,-0.431639164686203
1683588374573978600,4.666978515625,0.027662059292197227,0.8396166563034058,-0.5478686094284058
1683588374583986700,4.676986572265625,0.12423013895750046,0.8719303607940674,-0.5768065452575684
1683588374593993700,4.68699365234375,0.2320179045200348,1.1908743381500244,-0.5170861482620239
1683588374604000500,4.69700048828125,0.39266377687454224,1.5603591203689575,-0.43810367584228516
1683588374614008600,4.707008544921875,0.7874416708946228,1.5700178146362305,-0.3869852125644684
1683588374624015600,4.717015625,1.4227968454360962,1.304750680923462,-0.24274305999279022
1683588374634022700,4.727022705078125,2.0097906589508057,1.080609679222107,0.049962855875492096
1683588374644029700,4.73702978515625,2.2900588512420654,1.0851365327835083,0.32220929861068726
1683588374654037800,4.747037841796875,2.377906322479248,1.3557466268539429,0.514941394329071
1683588374664044500,4.75704443359375,2.359449863433838,1.2159055471420288,0.5732499957084656
1683588374674051800,4.7670517578125,2.3592820167541504,0.5479875206947327,0.5259745717048645
1683588374684059600,4.7770595703125,2.52664852142334,-0.9153534173965454,0.5109947919845581
1683588374694066700,4.787066650390625,2.864100694656372,-1.913346767425537,0.29460608959198
1683588374704073700,4.79707373046875,3.238239049911499,-2.293610095977783,-0.11550553143024445
1683588374714081800,4.807081787109375,3.571789264678955,-2.165504217147827,-0.5215585231781006
1683588374724088600,4.817088623046875,3.6237008571624756,-1.9122334718704224,-0.7895652055740356
1683588374734095600,4.827095703125,3.8969528675079346,-1.9589365720748901,-0.8213574290275574
1683588374744102700,4.8371025390625,4.3422017097473145,-2.6036365032196045,-0.42684921622276306
1683588374754110500,4.8471103515625,4.9388651847839355,-3.8042447566986084,0.10720698535442352
1683588374764117800,4.85711767578125,5.204926013946533,-3.8171727657318115,0.07232170552015305
1683588374774124500,4.86712451171875,5.116938591003418,-4.088866233825684,0.06617695838212967
1683588374784132600,4.877132568359375,4.59740686416626,-3.4175126552581787,0.04188040643930435
1683588374794139600,4.8871396484375,3.6118154525756836,-2.5978827476501465,0.22171750664710999
1683588374804146700,4.897146728515625,2.798029899597168,-1.8742773532867432,0.4789618253707886
1683588374814154800,4.90715478515625,2.084135055541992,-1.2501578330993652,0.528354823589325
1683588374824161800,4.917161865234375,1.3845375776290894,-1.0028069019317627,0.43026793003082275
1683588374834168600,4.92716845703125,0.7919952273368835,-0.6224872469902039,0.26094239950180054
1683588374844175600,4.937175537109375,0.2581283152103424,-0.5629110336303711,-0.1030278205871582
1683588374854183700,4.94718359375,-0.4018339514732361,-0.9808833003044128,-0.4536437690258026
1683588374864190500,4.9571904296875,-0.9880372285842896,-1.7542271614074707,-0.5032275319099426
1683588374874197800,4.96719775390625,-1.5088205337524414,-2.259415626525879,-0.28139063715934753
1683588374884205600,4.97720556640625,-2.19551682472229,-2.4250457286834717,0.19955335557460785
1683588374894212600,4.987212646484375,-2.945117950439453,-1.971187949180603,0.7173981666564941
1683588374904219600,4.9972197265625,-3.3275933265686035,-1.3894639015197754,1.1145697832107544
1683588374914226700,5.007226806640625,-3.211230993270874,-1.0470318794250488,1.2754517793655396
1683588374924234800,5.01723486328125,-2.7845044136047363,-1.7707104682922363,1.466248631477356
1683588374934241800,5.02724169921875,-2.5792715549468994,-2.1302084922790527,1.2414730787277222
1683588374944248600,5.03724853515625,-2.185446262359619,-1.5675874948501587,1.0483019351959229
1683588374954257000,5.0472568359375,-1.6397806406021118,-1.0414115190505981,0.7231853008270264
1683588374964263700,5.057263671875,-1.2655329704284668,-0.7242116332054138,0.0072162821888923645
1683588374974270500,5.0672705078125,-1.2838584184646606,0.2902328670024872,-0.745693027973175
1683588374984278800,5.07727880859375,-1.4029024839401245,1.2158818244934082,-1.0043426752090454
1683588374994285600,5.08728564453125,-1.477566123008728,1.8898301124572754,-1.0703741312026978
1683588375004292600,5.097292724609375,-1.5220999717712402,2.341585874557495,-1.1598283052444458
1683588375014299600,5.107299560546875,-1.453080177307129,2.486121416091919,-1.2493455410003662
1683588375024307700,5.1173076171875,-1.25699782371521,2.646507501602173,-1.0430980920791626
1683588375034314800,5.127314697265625,-1.015689492225647,2.3867392539978027,-0.31718796491622925
1683588375044321800,5.13732177734375,-0.8560274839401245,2.493176221847534,0.41616618633270264
1683588375054329600,5.14732958984375,-0.8516638875007629,2.7760307788848877,0.8254895210266113
1683588375064337000,5.1573369140625,-0.8393172025680542,2.976008653640747,0.911597490310669
1683588375074343700,5.16734375,-0.9740360975265503,2.9499783515930176,0.8689918518066406
1683588375084351700,5.177351806640625,-1.2261767387390137,3.161776542663574,0.8312210440635681
1683588375094358800,5.18735888671875,-1.4510985612869263,5.2779645919799805,1.6245516538619995
1683588375104365600,5.197365478515625,-1.1278222799301147,7.584096908569336,2.3201680183410645
1683588375114372600,5.20737255859375,-1.4916812181472778,6.8177900314331055,2.145143985748291
1683588375124380700,5.217380615234375,-1.8495306968688965,5.333684921264648,1.4602965116500854
1683588375134387700,5.2273876953125,-2.307318925857544,3.85699462890625,0.43333879113197327
1683588375144394800,5.237394775390625,-2.810253381729126,2.460263729095459,-0.449840784072876
1683588375154402800,5.24740283203125,-3.041341781616211,1.5922176837921143,-0.8310457468032837
1683588375164409600,5.25740966796875,-3.2121331691741943,1.705743670463562,-0.8102065324783325
1683588375174417000,5.2674169921875,-3.4804465770721436,1.4952809810638428,-0.6580789089202881
1683588375184424700,5.2774248046875,-3.8200745582580566,0.28003448247909546,-0.5976571440696716
1683588375194431700,5.287431640625,-3.9678704738616943,-0.6881054043769836,-1.3156441450119019
1683588375204438800,5.297438720703125,-3.525153398513794,1.1079192161560059,-2.224512815475464
1683588375214445600,5.307445556640625,-2.5269269943237305,2.3394618034362793,-2.549207925796509
1683588375224453600,5.31745361328125,-1.4934263229370117,2.0589895248413086,-2.2433197498321533
1683588375234460700,5.327460693359375,-0.6102944612503052,1.5328437089920044,-2.240504503250122
1683588375244467700,5.3374677734375,0.12325327098369598,0.9483698606491089,-2.376091480255127
1683588375254475500,5.3474755859375,0.7509015202522278,0.41249457001686096,-2.5184621810913086
1683588375264482800,5.35748291015625,1.5354865789413452,-0.36348292231559753,-3.0837650299072266
1683588375274489600,5.367489501953125,2.379328727722168,-0.3587093651294708,-3.448406219482422
1683588375284497700,5.37749755859375,2.9632153511047363,-0.11886827647686005,-3.2865583896636963
1683588375294504700,5.387504638671875,3.4188263416290283,0.024447275325655937,-2.8768811225891113
1683588375304511700,5.39751171875,3.8070316314697266,0.2940545082092285,-2.283203125
1683588375314518800,5.407518798828125,4.151304244995117,0.1367868185043335,-1.6634527444839478
1683588375324526800,5.41752685546875,4.405575752258301,-0.28513193130493164,-1.0739405155181885
1683588375334533600,5.42753369140625,4.4736409187316895,-0.5549803376197815,-0.5358381867408752
1683588375344540700,5.437540771484375,4.397300720214844,-0.7152613401412964,-0.12025029957294464
1683588375354548700,5.447548828125,4.400282859802246,-0.6526109576225281,0.006996801123023033
1683588375364555500,5.457555419921875,4.4442267417907715,-0.32528606057167053,-0.040895622223615646
1683588375374562800,5.467562744140625,4.331657409667969,0.19398027658462524,-0.0968017652630806
1683588375384569600,5.477569580078125,4.180339336395264,0.6365587711334229,-0.0069190142676234245
1683588375394577700,5.48757763671875,3.900862693786621,0.6685335040092468,0.24665626883506775
1683588375404584700,5.497584716796875,3.487454414367676,0.23019234836101532,0.47552618384361267
1683588375414591700,5.507591796875,3.17081880569458,-0.37633493542671204,0.5677363276481628
1683588375424599800,5.517599853515625,3.11667537689209,-1.0587867498397827,0.5583273768424988
1683588375434607000,5.527607177734375,3.5120739936828613,-1.6369314193725586,0.44945722818374634
1683588375444614000,5.53761376953125,4.347397804260254,-2.237226724624634,0.11986973881721497
1683588375454622000,5.5476220703125,4.975915431976318,-2.6085405349731445,-0.07892255485057831
1683588375464629000,5.55762890625,5.113370895385742,-3.038315773010254,0.01842956617474556
1683588375474635800,5.5676357421875,5.02931022644043,-3.7483043670654297,-0.05910319834947586
1683588375484643000,5.57764306640625,5.139853000640869,-3.8786559104919434,-0.026556706055998802
1683588375494651000,5.58765087890625,5.565193176269531,-3.9723052978515625,-0.15404458343982697
1683588375504658000,5.597657958984375,5.920421600341797,-3.9885408878326416,-0.3983302116394043
1683588375514665000,5.6076650390625,6.120388507843018,-3.692775249481201,-0.6610391736030579
1683588375524673000,5.617673095703125,6.120961666107178,-3.5935823917388916,-1.089166522026062
1683588375534679800,5.6276796875,5.844710826873779,-3.6849210262298584,-1.5131336450576782
1683588375544687000,5.63768701171875,5.728753566741943,-3.7742607593536377,-1.7989706993103027
1683588375554695000,5.64769482421875,5.249886512756348,-4.014837741851807,-2.1027567386627197
1683588375564702000,5.657701904296875,4.689098834991455,-4.2726359367370605,-2.3879518508911133
1683588375574709000,5.667708984375,4.309659481048584,-4.35844087600708,-2.5788536071777344
1683588375584715800,5.6777158203125,4.055916786193848,-3.7885169982910156,-2.5025699138641357
1683588375594723800,5.687723876953125,3.7792317867279053,-3.1071979999542236,-2.2392160892486572
1683588375604731000,5.69773095703125,3.124387741088867,-2.5619072914123535,-1.9065022468566895
1683588375614738000,5.707738037109375,2.726538896560669,-2.0924127101898193,-1.665162444114685
1683588375624745700,5.717745849609375,3.0830862522125244,-1.881973147392273,-1.7260081768035889
1683588375634753000,5.7277529296875,3.7445385456085205,-1.7783894538879395,-2.062098503112793
1683588375644759800,5.737759765625,4.157862186431885,-1.8049360513687134,-2.1600489616394043
1683588375654767900,5.747767822265625,3.620647668838501,-1.5901498794555664,-2.372732639312744
1683588375664775000,5.75777490234375,3.1649909019470215,-1.2459514141082764,-2.06980299949646
1683588375674782000,5.767781982421875,3.139058828353882,-0.84256511926651,-1.594014048576355
1683588375684789000,5.7777890625,3.0682287216186523,-0.32926642894744873,-1.5093919038772583
1683588375694797000,5.787797119140625,2.6616551876068115,-0.21513286232948303,-1.6947333812713623
1683588375704803800,5.797803955078125,1.8030381202697754,-0.04352755844593048,-1.8222767114639282
1683588375714811000,5.807810791015625,0.9009937644004822,0.020251959562301636,-1.6605807542800903
1683588375724819000,5.81781884765625,0.5325536727905273,-0.03706485778093338,-1.4200801849365234
1683588375734825700,5.82782568359375,0.34963005781173706,0.007177575491368771,-1.1019772291183472
1683588375744833000,5.8378330078125,0.12714584171772003,-0.12335646152496338,-0.8209986090660095
1683588375754839800,5.84783984375,-0.03816141188144684,-0.2548429071903229,-0.7298209071159363
1683588375764847900,5.857847900390625,-0.45286059379577637,-0.299071341753006,-0.6599481105804443
1683588375774855000,5.86785498046875,-0.8325740694999695,-0.5557841658592224,-0.39800626039505005
1683588375784862000,5.877862060546875,-0.9908512830734253,-0.6485846638679504,-0.014829297550022602
1683588375794870000,5.8878701171875,-1.0083341598510742,-0.49155133962631226,0.31290194392204285
1683588375804877000,5.897876953125,-1.0205413103103638,-0.24371623992919922,0.5138329863548279
1683588375814883800,5.9078837890625,-1.117558240890503,-0.04495784267783165,0.6508030295372009
1683588375824892200,5.91789208984375,-1.2002434730529785,0.11695303022861481,0.8043150901794434
1683588375834899000,5.92789892578125,-1.2338947057724,0.3588221073150635,0.9657660722732544
1683588375844905700,5.93790576171875,-1.2843546867370605,0.6140485405921936,1.1050578355789185
1683588375854913000,5.9479130859375,-1.3952033519744873,0.7503425478935242,1.2471671104431152
1683588375864920800,5.9579208984375,-1.5876156091690063,0.6890418529510498,1.4181479215621948
1683588375874927900,5.967927978515625,-1.8825691938400269,0.5625092387199402,1.6608984470367432
1683588375884935000,5.977934814453125,-2.317073345184326,0.5010524988174438,1.9925425052642822
1683588375894943000,5.98794287109375,-2.7182719707489014,0.47217506170272827,2.28579044342041
1683588375904950000,5.997949951171875,-2.9470252990722656,0.4098970592021942,2.5351169109344482
1683588375914957000,6.00795703125,-3.0569400787353516,0.3431015610694885,2.672186851501465
1683588375924963800,6.0179638671875,-3.115692615509033,0.2749011814594269,2.628894805908203
1683588375934972200,6.02797216796875,-3.163498878479004,-0.035094257444143295,2.546215057373047
1683588375944979000,6.03797900390625,-3.5077483654022217,-0.035692669451236725,2.337265729904175
1683588375954986000,6.047986083984375,-4.00144100189209,-0.09364807605743408,2.3713126182556152
1683588375964994000,6.057994140625,-4.525096416473389,0.24862004816532135,2.1574625968933105
1683588375975000800,6.068000732421875,-4.751650810241699,0.6226662993431091,1.8816183805465698
1683588375985008000,6.078008056640625,-4.868495941162109,0.773231565952301,1.7697341442108154
1683588375995016000,6.088015869140625,-4.860543727874756,0.583257794380188,1.7208423614501953
1683588376005023000,6.09802294921875,-4.719433307647705,0.4197290241718292,1.7564280033111572
1683588376015030000,6.108030029296875,-4.556089401245117,0.3287329077720642,1.8256624937057495
1683588376025036800,6.118036865234375,-4.279491901397705,0.10963942110538483,1.6978166103363037
1683588376035044900,6.128044921875,-3.667649507522583,-0.30516526103019714,1.08657705783844
1683588376045052000,6.138052001953125,-3.0140655040740967,-0.613272488117218,0.3114570081233978
1683588376055059000,6.148058837890625,-2.781400680541992,-0.4720308184623718,-0.3372366428375244
1683588376065066800,6.158066650390625,-2.8687376976013184,0.2803017795085907,-0.7100935578346252
1683588376075074000,6.168073974609375,-2.7748796939849854,1.3001803159713745,-0.7255223393440247
1683588376085080800,6.178080810546875,-2.216515302658081,1.9169484376907349,-0.481778621673584
1683588376095089000,6.1880888671875,-1.2373651266098022,1.4637941122055054,-0.3702090084552765
1683588376105096000,6.198095947265625,-0.2008337527513504,0.3784148395061493,-0.4835701882839203
1683588376115103000,6.20810302734375,0.6880871057510376,-0.6639813184738159,-0.6724700927734375
1683588376125110000,6.218110107421875,1.2347041368484497,-1.1079540252685547,-0.804095447063446
1683588376135118000,6.2281181640625,1.6657636165618896,-1.1318039894104004,-0.8845353722572327
1683588376145124900,6.238124755859375,1.984190821647644,-0.9536803364753723,-0.9286532998085022
1683588376155132000,6.2481318359375,2.0291781425476074,-0.7055240869522095,-0.9759084582328796
1683588376165140000,6.258139892578125,1.8432632684707642,-0.4691392183303833,-1.0447813272476196
1683588376175146800,6.268146728515625,1.535792589187622,-0.3294382095336914,-1.1065880060195923
1683588376185154000,6.278154052734375,1.2752898931503296,-0.4472380578517914,-1.181837558746338
1683588376195161900,6.288161865234375,1.1652337312698364,-1.0811103582382202,-1.247606873512268
1683588376205169000,6.2981689453125,1.1577273607254028,-1.9676953554153442,-1.2629512548446655
1683588376215176000,6.308176025390625,1.2179360389709473,-2.550841808319092,-1.2496100664138794
1683588376225183000,6.318182861328125,1.292230248451233,-2.4324519634246826,-1.3468998670578003
1683588376235190800,6.328190673828125,1.1981985569000244,-1.3953911066055298,-1.622092604637146
1683588376245198000,6.338197998046875,0.8847112655639648,-0.3038109540939331,-1.6310440301895142
1683588376255204900,6.348204833984375,0.4474644660949707,0.15311101078987122,-1.189049243927002
1683588376265213000,6.358212890625,0.04692663997411728,0.1643868237733841,-0.5771016478538513
1683588376275220000,6.368219970703125,-0.31594860553741455,0.2689533531665802,-0.12523287534713745
1683588376285226800,6.378226806640625,-0.6961260437965393,0.39295145869255066,-0.019107233732938766
1683588376295234000,6.388234130859375,-0.8561797738075256,-0.2554576098918915,-0.15641753375530243
1683588376305241900,6.398241943359375,-1.029179334640503,-1.2047078609466553,-0.36307430267333984
1683588376315249000,6.408248779296875,-0.8965961933135986,-1.7653861045837402,-0.7099918127059937
1683588376325256000,6.418255859375,-0.6956071257591248,-1.665973424911499,-0.9611350893974304
1683588376335264000,6.428263916015625,-0.774016797542572,-0.5923209190368652,-0.8178622722625732
1683588376345270800,6.438270751953125,-0.7779028415679932,0.4038698673248291,-0.5793690085411072
1683588376355278000,6.448278076171875,-0.2991205155849457,-0.12140156328678131,-0.4572383761405945
1683588376365286000,6.458285888671875,0.30926239490509033,-1.1956532001495361,-0.41583767533302307
1683588376375293000,6.46829296875,0.6591103672981262,-1.6909408569335938,-0.3736693859100342
1683588376385300000,6.478300048828125,0.7526198029518127,-1.5660955905914307,-0.35755565762519836
1683588376395306800,6.488306640625,0.6979312896728516,-1.2717434167861938,-0.4320548474788666
1683588376405314800,6.498314697265625,0.7201135754585266,-1.1485706567764282,-0.5781835913658142
1683588376415321900,6.50832177734375,0.7870097160339355,-1.2030775547027588,-0.6222513318061829
1683588376425329200,6.5183291015625,0.8259935975074768,-1.20553457736969,-0.5261109471321106
1683588376435337200,6.528337158203125,0.8457324504852295,-1.0356440544128418,-0.39036887884140015
1683588376445344300,6.53834423828125,0.8641311526298523,-0.7295652031898499,-0.26687994599342346
1683588376455351300,6.548351318359375,0.9046959280967712,-0.305870920419693,-0.133468359708786
1683588376465359000,6.558359130859375,1.0127099752426147,0.16279269754886627,0.01984395831823349
1683588376475366400,6.568366455078125,1.1864508390426636,0.583503246307373,0.16848638653755188
1683588376485373200,6.578373291015625,1.3057194948196411,0.7609304785728455,0.16817399859428406
1683588376495380200,6.588380126953125,1.2444672584533691,0.5088218450546265,0.10888059437274933
1683588376505388300,6.59838818359375,1.2191152572631836,0.3080194592475891,0.11984642595052719
1683588376515395000,6.60839501953125,1.3898024559020996,0.42225968837738037,0.1799854189157486
1683588376525402400,6.61840234375,1.790916085243225,0.7747253775596619,0.3415761888027191
1683588376535410200,6.62841015625,1.9051281213760376,0.8257972598075867,0.43180763721466064
1683588376545417200,6.638417236328125,1.8678725957870483,1.034725308418274,0.6151849031448364
1683588376555424300,6.64842431640625,1.8121390342712402,1.3714971542358398,0.7975407242774963
1683588376565431300,6.658431396484375,1.7634960412979126,1.5494376420974731,0.8982915282249451
1683588376575439000,6.668439208984375,1.8618342876434326,1.8481812477111816,0.9836210012435913
1683588376585446400,6.6784462890625,1.9730359315872192,2.0461020469665527,1.024576187133789
1683588376595453200,6.688453125,2.07706880569458,1.8911350965499878,1.1150000095367432
1683588376605461200,6.698461181640625,2.0798091888427734,1.4429082870483398,1.1683099269866943
1683588376615468300,6.70846826171875,1.9814784526824951,1.2948763370513916,1.1075618267059326
1683588376625475000,6.71847509765625,1.9213917255401611,1.074495792388916,0.830998420715332
1683588376635483400,6.7284833984375,1.928802728652954,0.9428790807723999,0.39951661229133606
1683588376645490200,6.738490234375,1.5173527002334595,0.7304887771606445,-0.02201278693974018
1683588376655497200,6.748497314453125,1.014110803604126,0.5415863990783691,-0.04100028797984123
1683588376665504300,6.758504150390625,0.7565064430236816,-0.19964052736759186,0.06788438558578491
1683588376675512300,6.76851220703125,0.0885416567325592,-0.2508919835090637,-0.16795237362384796
1683588376685519000,6.77851904296875,-0.7824957370758057,-0.5404343008995056,-0.1401793360710144
1683588376695526400,6.7885263671875,-1.1959842443466187,-0.8072503805160522,-0.08843111246824265
1683588376705534200,6.7985341796875,-1.1412218809127808,-0.9101927280426025,0.06415629386901855
1683588376715541200,6.808541259765625,-0.9199900031089783,-0.7514716386795044,-0.08802882581949234
1683588376725548300,6.81854833984375,-0.8086352348327637,-0.20544324815273285,-0.500184178352356
1683588376735556400,6.828556396484375,-0.769537091255188,0.3062121570110321,-0.8337444067001343
1683588376745563400,6.8385634765625,-0.5774621367454529,-0.16168342530727386,-0.5940460562705994
1683588376755570200,6.848570068359375,-0.33372828364372253,-0.5435499548912048,-0.26802870631217957
1683588376765577200,6.8585771484375,-0.2542249262332916,-0.9288283586502075,-0.23828868567943573
1683588376775585300,6.868585205078125,-0.1565791368484497,-0.8754858374595642,-0.31905052065849304
1683588376785592300,6.87859228515625,-0.10097579658031464,-0.47871801257133484,-0.5250568985939026
1683588376795599000,6.88859912109375,-0.0892690047621727,-0.1932516247034073,-0.5703496336936951
1683588376805607400,6.898607421875,-0.14367711544036865,0.33477917313575745,-0.6377111077308655
1683588376815614200,6.9086142578125,-0.15007859468460083,0.053806714713573456,-0.4450399875640869
1683588376825621200,6.918621337890625,-0.05125534534454346,-0.2898190915584564,-0.22286443412303925
1683588376835629300,6.92862939453125,-0.0028313552029430866,-0.5145754218101501,-0.06704162806272507
1683588376845636400,6.93863623046875,-0.04495830088853836,-0.5039118528366089,0.006852034013718367
1683588376855643400,6.948643310546875,-0.023387175053358078,-0.2516239583492279,0.036076489835977554
1683588376865650200,6.958650146484375,-0.009374952875077724,-0.0501321405172348,-0.041968509554862976
1683588376875658200,6.968658203125,0.008302569389343262,0.14749613404273987,-0.11772813647985458
1683588376885665300,6.978665283203125,0.07509491592645645,0.21932585537433624,-0.14662235975265503
1683588376895672300,6.98867236328125,0.15321438014507294,0.12520644068717957,-0.12098315358161926
1683588376905680100,6.99868017578125,0.2577466666698456,-1.7515050172805786,0.8440084457397461
1683588376915687400,7.0086875,-0.5227651596069336,-3.8962721824645996,1.2168383598327637
1683588376925694200,7.018694091796875,-1.5048049688339233,-3.68676495552063,0.48685845732688904
1683588376935701200,7.028701171875,-2.166300058364868,-2.348717451095581,-0.22201789915561676
1683588376945709300,7.038709228515625,-2.7786929607391357,-1.35036301612854,-0.558129608631134
1683588376955716400,7.04871630859375,-3.3983240127563477,-1.1222763061523438,-0.7672060132026672
1683588376965723400,7.058723388671875,-3.946641683578491,-1.3135874271392822,-1.0865418910980225
1683588376975731500,7.0687314453125,-4.511635780334473,-1.5419012308120728,-1.5609760284423828
1683588376985738200,7.07873828125,-5.076777458190918,-1.934218406677246,-1.9761838912963867
1683588376995745300,7.088745361328125,-5.3796000480651855,-2.2800867557525635,-2.154747724533081
1683588377005753300,7.09875341796875,-5.359350204467773,-2.340818166732788,-2.283179759979248
1683588377015760100,7.108760009765625,-4.9521355628967285,-2.168154001235962,-2.4137425422668457
1683588377025767400,7.118767333984375,-4.1225175857543945,-2.347731828689575,-2.2596933841705322
1683588377035774200,7.128774169921875,-2.972937822341919,-3.3131234645843506,-1.3622145652770996
1683588377045782300,7.1387822265625,-1.7519558668136597,-4.27063512802124,-0.1623067855834961
1683588377055789300,7.148789306640625,-1.0255776643753052,-4.5497260093688965,0.7480254173278809
1683588377065796400,7.15879638671875,-0.8446168899536133,-3.639702796936035,0.8674322366714478
1683588377075804200,7.16880419921875,-0.6104326248168945,-1.9814136028289795,0.5936618447303772
1683588377085811500,7.1788115234375,0.018109621480107307,-0.39005762338638306,0.3479173481464386
1683588377095818200,7.188818359375,0.1156102865934372,0.4972420632839203,0.4895470440387726
1683588377105826300,7.198826416015625,-0.04279959574341774,0.7837313413619995,0.6964853405952454
1683588377115833300,7.208833251953125,-0.4686504602432251,2.2200570106506348,1.5285733938217163
1683588377125840100,7.218840087890625,-1.1197062730789185,3.2737886905670166,2.2668769359588623
1683588377135847400,7.228847412109375,-1.3240623474121094,2.775247812271118,2.2648229598999023
1683588377145855200,7.238855224609375,-1.0782182216644287,1.391168236732483,1.8288369178771973
1683588377155862300,7.2488623046875,-1.064507246017456,0.26961204409599304,1.5116380453109741
1683588377165869300,7.258869384765625,-1.5334686040878296,-0.23496297001838684,1.166621208190918
1683588377175877400,7.26887744140625,-1.7482101917266846,-0.07870017737150192,0.6778443455696106
1683588377185884200,7.27888427734375,-1.9987659454345703,0.4003622829914093,0.2584558427333832
1683588377195891500,7.288891357421875,-2.1352477073669434,0.6567306518554688,-0.05217765271663666
1683588377205899300,7.298899169921875,-2.173431396484375,0.3816322684288025,-0.21511144936084747
1683588377215906000,7.308906005859375,-2.004910945892334,-0.13090313971042633,-0.28869307041168213
1683588377225913300,7.318913330078125,-2.192795753479004,-0.7989541888237,-0.1392495185136795
1683588377235920100,7.328920166015625,-2.033266544342041,-1.2498239278793335,-0.007592570036649704
1683588377245928200,7.33892822265625,-1.943605899810791,-1.4560258388519287,0.2249530553817749
1683588377255935200,7.348935302734375,-1.8748773336410522,-1.5277506113052368,0.4461735486984253
1683588377265942300,7.3589423828125,-1.915373682975769,-1.449971079826355,0.5384659171104431
1683588377275950000,7.3689501953125,-2.0007097721099854,-1.2662273645401,0.4234827756881714
1683588377285957400,7.378957275390625,-1.981208324432373,-0.889215350151062,0.2297857254743576
1683588377295964200,7.388964111328125,-2.0061490535736084,-0.6860367655754089,0.1704559475183487
1683588377305971200,7.39897119140625,-1.6046886444091797,-0.6774637699127197,0.06899137794971466
1683588377315979300,7.408979248046875,-1.2205095291137695,-0.8099603652954102,0.08220605552196503
1683588377325986000,7.418986083984375,-1.1195443868637085,-1.1248035430908203,0.1781964898109436
1683588377335993300,7.428993408203125,-0.9430451393127441,-1.3866546154022217,0.18543416261672974
1683588377346001200,7.439001220703125,-0.4207609295845032,-1.1585772037506104,0.04012038931250572
1683588377356008200,7.44900830078125,-0.050964243710041046,-0.7855031490325928,-0.14386360347270966
1683588377366015200,7.45901513671875,0.298977255821228,-0.4194362461566925,-0.3360455632209778
1683588377376023300,7.469023193359375,0.592644453048706,-0.08983328938484192,-0.45572906732559204
1683588377386030000,7.479030029296875,0.8754979968070984,0.13258139789104462,-0.507800281047821
1683588377396037400,7.489037353515625,1.1311136484146118,0.2358693778514862,-0.4947182536125183
1683588377406044200,7.499044189453125,1.3347773551940918,0.2350027859210968,-0.5011053085327148
1683588377416052200,7.50905224609375,1.5130656957626343,0.26838982105255127,-0.56468266248703
1683588377426058500,7.51905859375,1.6487582921981812,0.36290380358695984,-0.5964573621749878
1683588377436065800,7.529065673828125,1.7942126989364624,0.5449513792991638,-0.5360699892044067
1683588377446073600,7.539073486328125,1.930513858795166,0.8699691295623779,-0.44429078698158264
1683588377456080600,7.54908056640625,2.206406831741333,1.3319356441497803,-0.30978453159332275
1683588377466087700,7.559087646484375,2.3918142318725586,1.4653551578521729,-0.023919763043522835
1683588377476095700,7.569095703125,2.237774133682251,1.402116060256958,0.2864532470703125
1683588377486102500,7.5791025390625,2.1788957118988037,1.4846018552780151,0.38518622517585754
1683588377496109800,7.58910986328125,2.1367878913879395,1.5072687864303589,0.4237384796142578
1683588377506116600,7.59911669921875,2.004312038421631,1.1413395404815674,0.3183566629886627
1683588377516124700,7.609124755859375,1.688125491142273,0.5195499658584595,0.083173468708992
1683588377526131700,7.619131591796875,1.3437126874923706,-0.09092327952384949,-0.22314730286598206
1683588377536138500,7.629138427734375,1.0121403932571411,-0.5265507102012634,-0.5231347680091858
1683588377546146600,7.639146484375,0.7373967170715332,-0.7594113945960999,-0.7592018842697144
1683588377556153600,7.649153564453125,0.5512374043464661,-0.8853341937065125,-0.8721590638160706
1683588377566160600,7.65916064453125,0.4484383165836334,-0.9592430591583252,-0.8164688944816589
1683588377576168400,7.66916845703125,0.3974773585796356,-0.9065166711807251,-0.6346779465675354
1683588377586175700,7.67917578125,0.4013802111148834,-0.5914255976676941,-0.3997117877006531
1683588377596182500,7.6891826171875,0.44262850284576416,-0.09026511013507843,-0.16899152100086212
1683588377606189800,7.69918994140625,0.47868797183036804,0.3891425132751465,0.025520171970129013
1683588377616197600,7.70919775390625,0.4417186677455902,0.6865312457084656,0.1354590505361557
1683588377626204700,7.71920458984375,0.35880807042121887,0.8391884565353394,0.16374821960926056
1683588377636211700,7.729211669921875,0.2380795031785965,0.9791908264160156,0.0963568463921547
1683588377646219800,7.7392197265625,0.1490550935268402,0.976698637008667,0.035651687532663345
1683588377656226600,7.7492265625,0.10219116508960724,0.7912062406539917,0.034159064292907715
1683588377666233600,7.759233642578125,0.08975154161453247,0.5521904230117798,0.04347320273518562
1683588377676241700,7.76924169921875,0.11742691695690155,0.4568239748477936,-0.03040875308215618
1683588377686248400,7.77924853515625,0.1813417226076126,0.4650965631008148,-0.17865361273288727
1683588377696255700,7.789255859375,0.2650008797645569,0.19487102329730988,-0.4387372136116028
1683588377706262500,7.799262451171875,0.35550761222839355,0.22562041878700256,-0.4761095941066742
1683588377716270600,7.8092705078125,0.5402730107307434,0.7572346329689026,-0.26161718368530273
1683588377726277600,7.819277587890625,0.754432737827301,1.1300140619277954,0.005559398792684078
1683588377736284700,7.82928466796875,0.9110862612724304,1.1005887985229492,0.1350812166929245
1683588377746292500,7.83929248046875,1.0020544528961182,0.9292678833007812,0.15617212653160095
1683588377756299800,7.8492998046875,1.0586029291152954,0.7679517865180969,0.10213597863912582
1683588377766306600,7.859306640625,1.0900343656539917,0.7106056809425354,-0.0003448566421866417
1683588377776314600,7.869314697265625,1.1216610670089722,0.7161176800727844,-0.09018294513225555
1683588377786321700,7.87932177734375,1.165995478630066,0.6286304593086243,-0.13756510615348816
1683588377796328400,7.889328369140625,1.2199838161468506,0.5057822465896606,-0.1329713761806488
1683588377806335700,7.899335693359375,1.294586420059204,0.33920952677726746,-0.10473813861608505
1683588377816343600,7.909343505859375,1.3659676313400269,0.04518130421638489,-0.10329174995422363
1683588377826350600,7.9193505859375,1.4318130016326904,-0.3282066583633423,-0.175386443734169
1683588377836357600,7.929357666015625,1.4350119829177856,-0.5011350512504578,-0.4071705937385559
1683588377846365700,7.93936572265625,1.438650369644165,-0.4558861255645752,-0.670921802520752
1683588377856372500,7.94937255859375,1.4663101434707642,-0.47684144973754883,-0.8268744349479675
1683588377866379800,7.9593798828125,1.5044243335723877,-0.622522234916687,-0.8919655680656433
1683588377876386600,7.969386474609375,1.5224589109420776,-0.8759357929229736,-0.885787308216095
1683588377886394600,7.97939453125,1.5609405040740967,-1.013076663017273,-0.8526980876922607
1683588377896401700,7.989401611328125,1.616766333580017,-0.9584571719169617,-0.8264256119728088
1683588377906408400,7.999408447265625,1.694838047027588,-0.7615947127342224,-0.8039016723632812
1683588377916416800,8.009416748046876,1.7801190614700317,-0.5074732899665833,-0.7687800526618958
1683588377926423600,8.019423583984375,1.8497004508972168,-0.284127801656723,-0.6967194676399231
1683588377936430600,8.0294306640625,1.8861037492752075,-0.112185999751091,-0.5421540141105652
1683588377946438700,8.039438720703124,1.8124234676361084,0.2661128342151642,-0.14152826368808746
1683588377956445700,8.04944580078125,1.353105902671814,1.7664920091629028,1.1007899045944214
1683588377966452500,8.059452392578125,0.35168254375457764,3.569146156311035,3.096998691558838
1683588377976459800,8.069459716796874,-0.37023496627807617,2.1847188472747803,3.2948875427246094
1683588377986467600,8.079467529296876,-0.26398947834968567,1.3573299646377563,1.6810846328735352
1683588377996474600,8.089474609375,0.059011269360780716,0.6157576441764832,-0.02626350335776806
1683588378006481700,8.099481689453125,-0.1851300150156021,-0.011910520493984222,-0.5368010401725769
1683588378016489700,8.10948974609375,-0.6506636738777161,-0.2746333181858063,-0.45078402757644653
1683588378026496800,8.119496826171876,-0.8595743179321289,-0.5015657544136047,-0.35124945640563965
1683588378036503600,8.129503662109375,-0.787850558757782,-0.775495171546936,-0.2582888603210449
1683588378046511600,8.13951171875,-0.5834342837333679,-1.0836046934127808,-0.23025880753993988
1683588378056518700,8.1495185546875,-0.2958046495914459,-1.21439790725708,-0.28464534878730774
1683588378066525700,8.159525634765625,-0.019338425248861313,-0.9533804655075073,-0.3623979389667511
1683588378076532500,8.169532470703125,0.10030993819236755,-0.4048289954662323,-0.3997383117675781
1683588378086540800,8.179540771484374,0.13917769491672516,0.1558135449886322,-0.31211578845977783
1683588378096547600,8.189547607421876,0.1589048057794571,0.5046409964561462,-0.12742894887924194
1683588378106554600,8.1995546875,0.11478129029273987,0.6665499806404114,0.11864578723907471
1683588378116562700,8.209562744140625,0.0007386007346212864,0.7818476557731628,0.3674353063106537
1683588378126569700,8.21956982421875,-0.11434617638587952,0.9634382128715515,0.5818509459495544
1683588378136576800,8.22957666015625,-0.17175428569316864,1.1065821647644043,0.6909934282302856
1683588378146584800,8.239584716796875,-0.173592671751976,1.228004813194275,0.721069872379303
1683588378156591600,8.249591552734374,-0.1340237259864807,1.2707507610321045,0.6835330724716187
1683588378166598700,8.2595986328125,-0.10470925271511078,1.186140775680542,0.5990133881568909
1683588378176605700,8.269605712890625,-0.08834625035524368,1.0515084266662598,0.5028155446052551
1683588378186613500,8.279613525390625,-0.08082841336727142,0.8949940800666809,0.410030722618103
1683588378196620800,8.289620849609374,-0.08356693387031555,0.753367006778717,0.34776759147644043
1683588378206627600,8.299627685546875,-0.09248320013284683,0.6365229487419128,0.310106486082077
1683588378216635600,8.3096357421875,-0.10748639702796936,0.4911535978317261,0.2566050589084625
1683588378226642700,8.319642578125,-0.1885567456483841,0.23688402771949768,0.21314041316509247
1683588378236649700,8.329649658203126,-0.21451006829738617,0.0009716995991766453,0.19923251867294312
1683588378246656800,8.33965673828125,-0.18907181918621063,-0.11858692020177841,0.1827787160873413
1683588378256664800,8.349664794921875,-0.13577665388584137,-0.16353867948055267,0.1440129280090332
1683588378266671600,8.359671630859374,-0.08573852479457855,-0.13624580204486847,0.09177529811859131
1683588378276678700,8.3696787109375,-0.05318233370780945,-0.042990460991859436,0.04078347235918045
1683588378286686700,8.379686767578125,0.0006787673337385058,0.011864264495670795,-0.009147069416940212
1683588378296693500,8.389693603515624,0.06283475458621979,-0.06770050525665283,-0.061236970126628876
1683588378306700800,8.39970068359375,0.04437505453824997,-0.16992273926734924,-0.04004300385713577
1683588378316707600,8.40970751953125,0.013324307277798653,-0.3027119040489197,-0.01284423004835844
1683588378326715600,8.419715576171875,0.009474974125623703,-0.44269615411758423,-0.07796704024076462
1683588378336722700,8.42972265625,0.011781969107687473,-0.44719719886779785,-0.15204069018363953
1683588378346729700,8.439729736328125,0.05432330071926117,-0.3320775330066681,-0.20141436159610748
1683588378356737500,8.449737548828125,0.17043764889240265,-0.31050118803977966,-0.24931074678897858
1683588378366744600,8.45974462890625,0.3405172526836395,-0.36089858412742615,-0.31900137662887573
1683588378376751600,8.469751708984376,0.45349326729774475,-0.37861597537994385,-0.3940775394439697
1683588378386759400,8.479759521484375,0.5034909248352051,-0.38023170828819275,-0.45354458689689636
1683588378396766700,8.4897666015625,0.5199820399284363,-0.4018138647079468,-0.48405417799949646
1683588378406773500,8.4997734375,0.5147135257720947,-0.4698033034801483,-0.47761863470077515
1683588378416780800,8.50978076171875,0.4728616774082184,-0.5818156003952026,-0.4402901828289032
1683588378426789400,8.519789306640625,0.4252680540084839,-0.6619917154312134,-0.3996495306491852
1683588378436796200,8.529796142578125,0.4045875370502472,-0.6978608965873718,-0.39113467931747437
1683588378446803500,8.539803466796876,0.37452206015586853,-0.6493288278579712,-0.44501760601997375
1683588378456811300,8.549811279296875,0.3234160840511322,-0.4642215073108673,-0.5334412455558777
1683588378466818300,8.559818359375,0.3445618450641632,-0.27043047547340393,-0.5863515734672546
1683588378476825300,8.569825439453124,0.37423819303512573,-0.09931295365095139,-0.5689175724983215
1683588378486833400,8.57983349609375,0.3605969548225403,0.0055575305595994,-0.45163995027542114
1683588378496840200,8.589840087890625,0.26609840989112854,0.09311887621879578,-0.2394084632396698
1683588378506847200,8.59984716796875,0.17346861958503723,0.16409185528755188,-0.07681155949831009
1683588378516854300,8.609854248046876,0.12633226811885834,0.24452248215675354,-0.001362836454063654
1683588378526862000,8.619862060546875,0.0971088781952858,0.3579859137535095,0.04231886565685272
1683588378536869400,8.629869384765625,0.09013831615447998,0.4284653961658478,0.055093515664339066
1683588378546876200,8.639876220703124,0.056411247700452805,0.35653501749038696,0.016051040962338448
1683588378556884200,8.64988427734375,-0.0005048435414209962,0.219732403755188,-0.04881095886230469
1683588378566891300,8.659891357421875,-0.06318499892950058,0.09846056252717972,-0.10288883745670319
1683588378576898300,8.669898193359375,-0.09663878381252289,0.013628361746668816,-0.12320226430892944
1683588378586905300,8.6799052734375,-0.09963670372962952,-0.017541542649269104,-0.121395044028759
1683588378596913400,8.689913330078125,-0.10155259817838669,0.01027069240808487,-0.11537633091211319
1683588378606920200,8.699920166015625,-0.09918824583292007,0.07081127166748047,-0.09890973567962646
1683588378616927200,8.70992724609375,-0.09070712327957153,0.10404898971319199,-0.06437322497367859
1683588378626935300,8.719935302734376,-0.1060756966471672,0.09943559765815735,-0.015058936551213264
1683588378636942000,8.729942138671875,-0.15362538397312164,0.09269627928733826,0.04880758374929428
1683588378646949400,8.739949462890625,-0.2183535099029541,0.09840530157089233,0.1230623722076416
1683588378656956200,8.7499560546875,-0.30737075209617615,0.08695798367261887,0.18339097499847412
1683588378666964200,8.759964111328125,-0.4199846684932709,0.10722197592258453,0.22522470355033875
1683588378676971300,8.76997119140625,-0.5466418862342834,0.129704549908638,0.2523818016052246
1683588378686978300,8.779978271484374,-0.6944630146026611,0.04979480057954788,0.252571165561676
1683588378696986000,8.789986083984376,-0.8483449816703796,-0.09607190638780594,0.21839991211891174
1683588378706993400,8.799993408203125,-0.9989405274391174,-0.16887767612934113,0.2075461894273758
1683588378717000200,8.810000244140625,-1.1163411140441895,-0.18691936135292053,0.2320874035358429
1683588378727008300,8.82000830078125,-1.1736195087432861,-0.16134582459926605,0.3235568702220917
1683588378737015300,8.830015380859376,-1.1684287786483765,-0.12263438105583191,0.4358750879764557
1683588378747022000,8.84002197265625,-1.0859935283660889,-0.06158381327986717,0.5176594853401184
1683588378757029400,8.850029296875,-0.9401252865791321,0.01047779805958271,0.5855530500411987
1683588378767037200,8.860037109375,-0.7687916159629822,0.06901168078184128,0.6357600688934326
1683588378777044200,8.870044189453125,-0.6183515191078186,0.14042024314403534,0.6642464399337769
1683588378787051300,8.88005126953125,-0.42901965975761414,0.21774166822433472,0.6876979470252991
1683588378797059300,8.890059326171874,-0.31593164801597595,0.2555542290210724,0.673489511013031
1683588378807066000,8.900066162109376,-0.2767621576786041,0.22152408957481384,0.6413779258728027
1683588378817073400,8.910073486328125,-0.3191879987716675,0.22845599055290222,0.6426509618759155
1683588378827080200,8.920080078125,-0.3478547930717468,0.2811681926250458,0.683931291103363
1683588378837088300,8.930088134765626,-0.3714844286441803,0.5444808602333069,0.7911032438278198
1683588378847095300,8.94009521484375,-0.35355737805366516,0.8536195158958435,0.9279593825340271
1683588378857102000,8.95010205078125,-0.34496766328811646,1.0790268182754517,1.029677391052246
1683588378867110100,8.960110107421874,-0.2966424822807312,1.1132125854492188,1.0501043796539307
1683588378877117200,8.9701171875,-0.22885961830615997,1.045082449913025,0.9868346452713013
1683588378887124200,8.980124267578125,-0.11355380713939667,0.9027897119522095,0.8267278075218201
1683588378897132000,8.990132080078125,-0.006277788896113634,0.8003541827201843,0.5872818827629089
1683588378907139300,9.000139404296876,0.022734155878424644,0.7126400470733643,0.3507218360900879
1683588378917146000,9.01014599609375,0.006592569872736931,0.6122035980224609,0.1583825796842575
1683588378927153400,9.0201533203125,-0.03883003816008568,0.5142056941986084,0.06011992692947388
1683588378937161200,9.0301611328125,-0.07182610034942627,0.42727386951446533,0.06196930259466171
1683588378947168300,9.040168212890626,-0.07491323351860046,0.3910790979862213,0.10964095592498779
1683588378957175300,9.05017529296875,-0.02568686567246914,0.4205460846424103,0.14748965203762054
1683588378967183400,9.060183349609375,0.05541278049349785,0.47941073775291443,0.15221916139125824
1683588378977190100,9.070190185546876,0.14140865206718445,0.5116711258888245,0.11906927078962326
1683588378987197200,9.080197265625,0.21103380620479584,0.49260076880455017,0.049956511706113815
1683588378997204200,9.090204345703125,0.25599783658981323,0.41376179456710815,-0.03570878505706787
1683588379007212300,9.10021240234375,0.2640842795372009,0.2650572657585144,-0.1020933985710144
1683588379017219300,9.11021923828125,0.2773228883743286,0.0969761535525322,-0.1553681194782257
1683588379027226000,9.12022607421875,0.29294607043266296,-0.08601310849189758,-0.21409215033054352
1683588379037234400,9.130234375,0.3221944272518158,-0.18433962762355804,-0.25891610980033875
1683588379047241200,9.1402412109375,0.30856651067733765,-0.2653399407863617,-0.2766900658607483
1683588379057248300,9.150248291015625,0.3076801598072052,-0.2757081091403961,-0.26104748249053955
1683588379067255300,9.16025537109375,0.3122706413269043,-0.2730119228363037,-0.23216842114925385
1683588379077263400,9.170263427734374,0.32883691787719727,-0.2374049872159958,-0.1890089362859726
1683588379087270100,9.180270263671876,0.33360210061073303,-0.19370810687541962,-0.1525702327489853
1683588379097277200,9.190277099609375,0.3574771285057068,-0.1505122035741806,-0.12423630058765411
1683588379107285200,9.20028515625,0.35704275965690613,-0.13319499790668488,-0.11131011694669724
1683588379117292300,9.210292236328126,0.32720544934272766,-0.13270294666290283,-0.10474876314401627
1683588379127299300,9.22029931640625,0.2544332444667816,-0.06424426287412643,-0.1014818623661995
1683588379137306000,9.23030615234375,0.18857669830322266,0.011337166652083397,-0.1014644056558609
1683588379147314400,9.240314453125,0.1752406656742096,0.04704829305410385,-0.11700686812400818
1683588379157321200,9.2503212890625,0.20787431299686432,0.0575026236474514,-0.1396782249212265
1683588379167328300,9.260328369140625,0.2454637587070465,0.04937412217259407,-0.1515442132949829
1683588379177336300,9.27033642578125,0.28499194979667664,0.025448648259043694,-0.14792530238628387
1683588379187343400,9.28034326171875,0.3288864195346832,-0.03617636859416962,-0.15383273363113403
1683588379197350100,9.29035009765625,0.37078383564949036,-0.09558183699846268,-0.15748213231563568
1683588379207358500,9.3003583984375,0.4022519886493683,-0.14929166436195374,-0.1705196350812912
1683588379217365200,9.310365234375,0.4326871335506439,-0.22119015455245972,-0.20290705561637878
1683588379227372300,9.320372314453126,0.44030776619911194,-0.29499781131744385,-0.2299243062734604
1683588379237379300,9.33037939453125,0.4288196861743927,-0.3912023901939392,-0.26472142338752747
1683588379247387100,9.34038720703125,0.3978934586048126,-0.4907529354095459,-0.3043396770954132
1683588379257394400,9.35039453125,0.3619058430194855,-0.6050254106521606,-0.35366249084472656
1683588379267401200,9.360401123046875,0.3315111994743347,-0.6852055191993713,-0.38174793124198914
1683588379277409300,9.3704091796875,0.29637593030929565,-0.6748065948486328,-0.3602807819843292
1683588379287416300,9.380416259765624,0.2650265395641327,-0.6262425184249878,-0.30176687240600586
1683588379297423400,9.39042333984375,0.2387666553258896,-0.5640261769294739,-0.23101098835468292
1683588379307430100,9.40043017578125,0.22747431695461273,-0.48744437098503113,-0.16081538796424866
1683588379317438500,9.4104384765625,0.22286540269851685,-0.412262499332428,-0.09882714599370956
1683588379327445200,9.4204453125,0.22971558570861816,-0.3547326326370239,-0.05341864749789238
1683588379337452300,9.430452392578125,0.23883742094039917,-0.2866628170013428,-0.01731725223362446
1683588379347460400,9.44046044921875,0.2461419403553009,-0.23687611520290375,0.02033638395369053
1683588379357467100,9.450467041015624,0.24206402897834778,-0.27376502752304077,0.04676537960767746
1683588379367474400,9.460474365234376,0.2325378954410553,-0.39718443155288696,0.08042959868907928
1683588379377481200,9.470481201171875,0.22323063015937805,-0.6081773042678833,0.11149640381336212
1683588379387489300,9.4804892578125,0.20004887878894806,-0.8007933497428894,0.0955861508846283
1683588379397496300,9.490496337890624,0.15917441248893738,-0.8821054697036743,-0.008546451106667519
1683588379407503400,9.50050341796875,0.12269682437181473,-0.865760087966919,-0.14301344752311707
1683588379417511200,9.51051123046875,0.11283638328313828,-0.7138799428939819,-0.16979897022247314
1683588379427518200,9.520518310546874,0.1270504742860794,-0.48950034379959106,-0.06978769600391388
1683588379437525200,9.530525146484376,0.15727047622203827,-0.35741010308265686,0.06936337798833847
1683588379447532300,9.5405322265625,0.1960168033838272,-0.3272306025028229,0.19419826567173004
1683588379457540400,9.550540283203125,0.19835081696510315,-0.32220008969306946,0.28222978115081787
1683588379467547100,9.560547119140624,0.1723325401544571,-0.30848535895347595,0.3157517910003662
1683588379477554200,9.57055419921875,0.15928709506988525,-0.35193750262260437,0.28079935908317566
1683588379487562200,9.580562255859375,0.1468898206949234,-0.31800031661987305,0.2292238026857376
1683588379497569000,9.590569091796874,0.11782056093215942,-0.12530913949012756,0.22678887844085693
1683588379507576300,9.600576416015626,0.10905955731868744,0.22823773324489594,0.3034639358520508
1683588379517584100,9.610584228515625,0.10703419893980026,0.4527522623538971,0.42990797758102417
1683588379527591200,9.620591064453125,0.1387290060520172,0.5189062356948853,0.5147097110748291
1683588379537598200,9.63059814453125,0.1792878955602646,0.5368274450302124,0.5609283447265625
1683588379547605200,9.640605224609375,0.22216957807540894,0.5244275331497192,0.5628708600997925
1683588379557613000,9.650613037109375,0.27280622720718384,0.3852020502090454,0.4995993673801422
1683588379567620400,9.660620361328125,0.31289079785346985,0.1698753386735916,0.35735246539115906
1683588379577627100,9.670627197265626,0.3684719204902649,0.06885512173175812,0.18589407205581665
1683588379587635200,9.68063525390625,0.3828769624233246,-0.03708808869123459,0.03019128553569317
1683588379597642200,9.690642333984375,0.3554566502571106,-0.07305369526147842,-0.06466162204742432
1683588379607649000,9.70064892578125,0.29520314931869507,-0.13820846378803253,-0.08299002796411514
1683588379617656300,9.71065625,0.25378715991973877,-0.23226571083068848,-0.06573908030986786
1683588379627664100,9.7206640625,0.198443204164505,-0.3543040156364441,-0.07141081243753433
1683588379637671200,9.730671142578124,0.20069679617881775,-0.4893386960029602,-0.13390307128429413
1683588379647678200,9.74067822265625,0.22612199187278748,-0.6513579487800598,-0.24891754984855652
1683588379657686300,9.750686279296875,0.2115068882703781,-0.7782735824584961,-0.3625556528568268
1683588379667693000,9.760693115234375,0.17184843122959137,-0.8249201774597168,-0.39161765575408936
1683588379677700400,9.770700439453124,0.13832801580429077,-0.8303987979888916,-0.3472883701324463
1683588379687707100,9.78070703125,0.1375863254070282,-0.7837820649147034,-0.250808447599411
1683588379697715200,9.790715087890625,0.17705325782299042,-0.6168367266654968,-0.12156549096107483
1683588379707722200,9.80072216796875,0.24779561161994934,-0.28775203227996826,-0.005425834562629461
1683588379717729000,9.81072900390625,0.31276631355285645,0.11667636781930923,0.019962159916758537
1683588379727737000,9.820737060546875,0.3638518750667572,0.38047122955322266,-0.05115516111254692
1683588379737744100,9.830744140625,0.42817068099975586,0.3644438683986664,-0.13241970539093018
1683588379747751200,9.840751220703124,0.48654797673225403,0.023086532950401306,-0.22024782001972198
1683588379757758200,9.85075830078125,0.5212188363075256,-0.4783068299293518,-0.3384561538696289
1683588379767766300,9.860766357421875,0.5031969547271729,-1.0278003215789795,-0.5037455558776855
1683588379777773000,9.87077294921875,0.4755508005619049,-1.38602876663208,-0.648597002029419
1683588379787780400,9.8807802734375,0.4552021324634552,-1.4143186807632446,-0.7412058115005493
1683588379797788200,9.8907880859375,0.41832879185676575,-1.2294279336929321,-0.8012064099311829
1683588379807795200,9.900795166015625,0.3631313145160675,-0.9435745477676392,-0.8210346698760986
1683588379817802200,9.91080224609375,0.3357183039188385,-0.621550977230072,-0.7587142586708069
1683588379827809000,9.92080908203125,0.3365691602230072,-0.3893398642539978,-0.5719704627990723
1683588379837817000,9.930817138671875,0.29914116859436035,-0.19789107143878937,-0.30965182185173035
1683588379847824100,9.94082421875,0.2008334994316101,0.07911442220211029,-0.0844258964061737
1683588379857831200,9.9508310546875,0.10053613036870956,0.46901220083236694,0.06995615363121033
1683588379867839000,9.9608388671875,0.0640561506152153,0.8070741891860962,0.17716090381145477
1683588379877846300,9.97084619140625,0.08626183122396469,0.9781472086906433,0.23914188146591187
1683588379887853000,9.98085302734375,0.13705657422542572,1.0002610683441162,0.24588020145893097
1683588379897860400,9.9908603515625,0.14739711582660675,0.9671053886413574,0.2230897843837738
1683588379907868200,10.0008681640625,0.11082737892866135,0.8907768130302429,0.17689724266529083
1683588379917875200,10.010875244140625,0.09004463255405426,0.7770905494689941,0.13865651190280914
1683588379927882200,10.02088232421875,0.11743630468845367,0.6357861161231995,0.11513786017894745
1683588379937890300,10.030890380859375,0.1900407373905182,0.4989103376865387,0.10217306017875671
1683588379947897000,10.04089697265625,0.2645045816898346,0.411126971244812,0.08373013138771057
1683588379957904100,10.050904052734374,0.2690279483795166,0.3640267848968506,0.046133264899253845
1683588379967911200,10.0609111328125,0.20525430142879486,0.3048505485057831,-0.010724158026278019
1683588379977919000,10.0709189453125,0.09083826094865799,0.25647059082984924,-0.07892672717571259
1683588379987926300,10.08092626953125,-0.037767115980386734,0.22633904218673706,-0.15458180010318756
1683588379997933000,10.09093310546875,-0.12693803012371063,0.1858104169368744,-0.22832675278186798
1683588380007941000,10.100941162109375,-0.15716810524463654,0.1340891718864441,-0.28922179341316223
1683588380017948200,10.1109482421875,-0.14607948064804077,0.12488028407096863,-0.34391576051712036
1683588380027955200,10.120955078125,-0.08954617381095886,0.19279250502586365,-0.3507361114025116
1683588380037962200,10.130962158203126,0.00007399334572255611,0.33583247661590576,-0.32601505517959595
1683588380047970300,10.14097021484375,0.08587465435266495,0.4758974313735962,-0.28814995288848877
1683588380057977000,10.15097705078125,0.14167633652687073,0.5131797790527344,-0.25156277418136597
1683588380067984100,10.160984130859376,0.14824235439300537,0.3737070560455322,-0.2390459179878235
1683588380077992200,10.1709921875,0.08226978033781052,0.07055690884590149,-0.268356055021286
1683588380087999200,10.180999267578125,-0.050855785608291626,-0.3231792151927948,-0.3526962101459503
1683588380098006300,10.19100634765625,-0.17930349707603455,-0.7158326506614685,-0.4792387783527374
1683588380108013000,10.201012939453125,-0.23113234341144562,-1.0219686031341553,-0.6105268001556396
1683588380118021400,10.211021484375,-0.2109062373638153,-1.1983081102371216,-0.6870450377464294
1683588380128028200,10.221028076171875,-0.15727657079696655,-1.2256611585617065,-0.6565590500831604
1683588380138035200,10.23103515625,-0.09397398680448532,-1.1303679943084717,-0.5360832810401917
1683588380148043300,10.241043212890625,-0.05826205760240555,-0.9338386058807373,-0.39556023478507996
1683588380158050000,10.251050048828125,-0.09166198968887329,-0.6829238533973694,-0.2906903326511383
1683588380168057000,10.26105712890625,-0.161543071269989,-0.46375900506973267,-0.2384473830461502
1683588380178064100,10.271064208984376,-0.2335882931947708,-0.4053734540939331,-0.22316987812519073
1683588380188072200,10.281072265625,-0.28203946352005005,-0.5508363842964172,-0.22422128915786743
1683588380198079200,10.291079345703125,-0.30948418378829956,-0.8132484555244446,-0.24542757868766785
1683588380208086300,10.301086181640626,-0.31889981031417847,-1.0575799942016602,-0.2818306088447571
1683588380218094000,10.311093994140625,-0.27836665511131287,-1.2370390892028809,-0.3358958065509796
1683588380228101400,10.321101318359375,-0.26373231410980225,-1.1819065809249878,-0.37193530797958374
1683588380238108200,10.331108154296874,-0.3247624635696411,-0.971196174621582,-0.36233142018318176
1683588380248115000,10.341114990234376,-0.36426007747650146,-0.8239111304283142,-0.35781949758529663
1683588380258123300,10.351123291015625,-0.43905913829803467,-0.6878516674041748,-0.3588458001613617
1683588380268130000,10.361130126953125,-0.4410647451877594,-0.6845232248306274,-0.36026182770729065
1683588380278137000,10.37113720703125,-0.34214669466018677,-0.7978599071502686,-0.36093369126319885
1683588380288144100,10.38114404296875,-0.2549920678138733,-0.7895671129226685,-0.3258811831474304
1683588380298152200,10.391152099609375,-0.1724328100681305,-0.6564032435417175,-0.25650283694267273
1683588380308159200,10.4011591796875,-0.11093296855688095,-0.42351993918418884,-0.1438007950782776
1683588380318166300,10.411166259765626,-0.014001382514834404,-0.27927181124687195,-0.04762803390622139
1683588380328174000,10.421174072265625,0.06685511767864227,-0.15949134528636932,-0.030920159071683884
1683588380338181400,10.431181396484375,0.17954127490520477,-0.1530124396085739,-0.11122965812683105
1683588380348188200,10.441188232421876,0.28601178526878357,-0.21256019175052643,-0.1945170909166336
1683588380358195000,10.45119482421875,0.3759131133556366,-0.31545159220695496,-0.2378838062286377
1683588380368203300,10.461203369140625,0.4704936742782593,-0.31198975443840027,-0.22752943634986877
1683588380378210000,10.4712099609375,0.5609623789787292,-0.2940254509449005,-0.14805348217487335
1683588380388217000,10.481217041015626,0.6019343137741089,-0.15204966068267822,-0.002312262076884508
1683588380398225200,10.49122509765625,0.6906132102012634,-0.08686938881874084,0.07508912682533264
1683588380408232200,10.501232177734375,0.7415693402290344,-0.0786878913640976,0.039927948266267776
1683588380418239200,10.5112392578125,0.7721739411354065,-0.03455236181616783,-0.02491367608308792
1683588380428246000,10.52124609375,0.7864913940429688,-0.008211569860577583,-0.05775205045938492
1683588380438253800,10.53125390625,0.7902584075927734,-0.0023166213650256395,-0.06563158333301544
1683588380448261000,10.54126123046875,0.784172534942627,0.005644099786877632,-0.056183747947216034
1683588380458268000,10.551267822265626,0.7418541312217712,0.007686730474233627,-0.0504813976585865
1683588380468276000,10.56127587890625,0.6799734830856323,-0.007357732392847538,-0.06481639295816422
1683588380478283000,10.571282958984375,0.6046400666236877,-0.023533878847956657,-0.09007742255926132
1683588380488289800,10.581289794921876,0.5365797877311707,-0.04822643846273422,-0.10010901838541031
1683588380498297000,10.591297119140625,0.4838486313819885,-0.07610991597175598,-0.0925222784280777
1683588380508305000,10.601304931640625,0.42952868342399597,-0.07091968506574631,-0.07744026184082031
1683588380518312000,10.61131201171875,0.37803032994270325,-0.033787649124860764,-0.05142795294523239
1683588380528319000,10.621319091796876,0.3336476981639862,-0.01986224763095379,-0.023814167827367783
1683588380538327000,10.6313271484375,0.2869977355003357,-0.017248334363102913,-0.0032266508787870407
1683588380548333800,10.641333740234375,0.2346373200416565,-0.026277249678969383,-0.01035380270332098
1683588380558341000,10.651341064453124,0.19452893733978271,-0.05211654677987099,-0.0361102856695652
1683588380568348000,10.661347900390625,0.17528387904167175,-0.07683946937322617,-0.06738031655550003
1683588380578356000,10.67135595703125,0.16620056331157684,-0.08752550184726715,-0.09474897384643555
1683588380588363000,10.681363037109374,0.1634862720966339,-0.08533105254173279,-0.08957497775554657
1683588380598369800,10.691369873046876,0.16796045005321503,-0.08358989655971527,-0.0518244169652462
1683588380608377000,10.701377197265625,0.17629002034664154,-0.08926989138126373,-0.020238526165485382
1683588380618385000,10.711385009765625,0.17434623837471008,-0.11397095024585724,-0.009380603209137917
1683588380628392000,10.721391845703126,0.15068671107292175,-0.09947723150253296,-0.022076956927776337
1683588380638399000,10.73139892578125,0.12678508460521698,-0.07833226025104523,-0.03963996842503548
1683588380648407000,10.741406982421875,0.11158562451601028,-0.08382023125886917,-0.05396617576479912
1683588380658413800,10.751413818359374,0.09894552081823349,-0.08748947829008102,-0.06476537883281708
1683588380668421000,10.761421142578126,0.07901868969202042,-0.0795322135090828,-0.06598696857690811
1683588380678428000,10.771427978515625,0.054118864238262177,-0.059414152055978775,-0.05723874270915985
1683588380688436000,10.78143603515625,0.03417924419045448,-0.04475238546729088,-0.03817397356033325
1683588380698443000,10.791443115234374,0.011348085477948189,-0.037175748497247696,-0.021706029772758484
1683588380708449800,10.80144970703125,-0.0087441336363554,-0.020143503323197365,-0.014207899570465088
1683588380718457900,10.811457763671875,-0.025597484782338142,-0.009902039542794228,-0.015304578468203545
1683588380728465000,10.82146484375,-0.038419272750616074,-0.009420806542038918,-0.02010066621005535
1683588380738472000,10.831471923828126,-0.0557921826839447,-0.0029486315324902534,-0.026627419516444206
1683588380748479000,10.84147900390625,-0.08156891167163849,0.029023149982094765,-0.03194788098335266
1683588380758487000,10.851487060546875,-0.10721378773450851,0.05321814864873886,-0.033128127455711365
1683588380768493800,10.861493896484374,-0.12844742834568024,0.08144500106573105,-0.03533269092440605
1683588380778501000,10.871501220703125,-0.14569127559661865,0.11286257207393646,-0.0434291735291481
1683588380788509000,10.881509033203125,-0.16204068064689636,0.13610637187957764,-0.047426044940948486
1683588380798516000,10.891515869140624,-0.177435964345932,0.13858474791049957,-0.05059477686882019
1683588380808523000,10.90152294921875,-0.18561133742332458,0.1284964233636856,-0.05300121009349823
1683588380818529800,10.91152978515625,-0.1988563984632492,0.11654979735612869,-0.06443525105714798
1683588380828537900,10.921537841796875,-0.21667641401290894,0.10682126879692078,-0.08127894252538681
1683588380838545000,10.931544921875,-0.23501281440258026,0.1186693012714386,-0.09642928838729858
1683588380848552000,10.941552001953125,-0.25439393520355225,0.15331968665122986,-0.10076171159744263
1683588380858559000,10.95155908203125,-0.26886096596717834,0.2005317062139511,-0.0916401818394661
1683588380868567000,10.961567138671874,-0.2792496979236603,0.23857629299163818,-0.07414134591817856
1683588380878573800,10.97157373046875,-0.28984808921813965,0.26615428924560547,-0.05646475404500961
1683588380888581000,10.9815810546875,-0.29972362518310547,0.2827543020248413,-0.04057953134179115
1683588380898589000,10.9915888671875,-0.3055056035518646,0.27134716510772705,-0.026824001222848892
1683588380908596000,11.001595947265624,-0.30898287892341614,0.22103682160377502,-0.020139198750257492
1683588380918603000,11.01160302734375,-0.3161347508430481,0.16464324295520782,-0.02705536037683487
1683588380928609800,11.02160986328125,-0.33328524231910706,0.10867505520582199,-0.03307809680700302
1683588380938617900,11.031617919921874,-0.36043375730514526,0.04298955202102661,-0.03503689169883728
1683588380948625000,11.041625,-0.38874050974845886,-0.001405874965712428,-0.03757248818874359
1683588380958632000,11.0516318359375,-0.42812684178352356,-0.06215611472725868,-0.019822172820568085
1683588380968639700,11.0616396484375,-0.46703216433525085,-0.026232998818159103,-0.030698789283633232
1683588380978647000,11.07164697265625,-0.5061015486717224,0.0672307088971138,-0.052527736872434616
1683588380988653800,11.08165380859375,-0.5285919308662415,0.17598648369312286,-0.05930228531360626
1683588380998661000,11.0916611328125,-0.5214082598686218,0.29221075773239136,-0.05111751705408096
1683588381008669000,11.1016689453125,-0.4916287958621979,0.40630272030830383,-0.02962474152445793
1683588381018676000,11.111676025390626,-0.44508928060531616,0.4900432527065277,-0.007267349399626255
1683588381028683000,11.12168310546875,-0.39539575576782227,0.5030354857444763,0.01619909331202507
1683588381038689800,11.131689697265625,-0.35983145236968994,0.47611165046691895,0.036459483206272125
1683588381048697900,11.14169775390625,-0.3476176857948303,0.4623497724533081,0.039520520716905594
1683588381058705000,11.151704833984375,-0.3527020812034607,0.48694291710853577,0.02329949289560318
1683588381068712000,11.1617119140625,-0.3650341033935547,0.530443012714386,0.015936918556690216
1683588381078719700,11.1717197265625,-0.36770474910736084,0.5530771613121033,0.034778788685798645
1683588381088727000,11.18172705078125,-0.3445291221141815,0.5400623083114624,0.08703666180372238
1683588381098733800,11.19173388671875,-0.3068230152130127,0.5136199593544006,0.1638127863407135
1683588381108741000,11.2017412109375,-0.25428417325019836,0.49437540769577026,0.24555771052837372
1683588381118749000,11.2117490234375,-0.19840385019779205,0.4991604685783386,0.3097991347312927
1683588381128756000,11.221755859375,-0.16210949420928955,0.5437910556793213,0.3402409255504608
1683588381138763000,11.231762939453125,-0.1525663286447525,0.6233104467391968,0.33414405584335327
1683588381148771000,11.24177099609375,-0.15357859432697296,0.7180535197257996,0.29477614164352417
1683588381158777900,11.25177783203125,-0.1654682755470276,0.8018147945404053,0.24449290335178375
1683588381168785000,11.261784912109375,-0.16329939663410187,0.8365762233734131,0.20313720405101776
1683588381178792000,11.2717919921875,-0.13614149391651154,0.8056768774986267,0.18590602278709412
1683588381188799700,11.2817998046875,-0.07851336151361465,0.6999536752700806,0.19037054479122162
1683588381198807000,11.29180712890625,-0.013966869562864304,0.5434851050376892,0.21199844777584076
1683588381208813800,11.301813720703125,0.026525696739554405,0.36935725808143616,0.23632989823818207
1683588381218820900,11.31182080078125,0.041041359305381775,0.21474064886569977,0.24957427382469177
1683588381228829000,11.321828857421876,0.026230186223983765,0.0812225341796875,0.2477196455001831
1683588381238835700,11.331835693359375,0.002408406464383006,-0.03368997573852539,0.236362025141716
1683588381248843000,11.341843017578125,-0.009378212504088879,-0.13297316431999207,0.22522762417793274
1683588381258850800,11.351850830078124,0.001887357560917735,-0.1783408671617508,0.20342329144477844
1683588381268857900,11.36185791015625,0.006587304174900055,-0.1431320160627365,0.1669480949640274
1683588381278865000,11.371864990234375,-0.013074320740997791,-0.039768192917108536,0.11835724115371704
1683588381288872000,11.381871826171874,-0.06697803735733032,0.08611144870519638,0.07628701627254486
1683588381298879700,11.391879638671876,-0.14174801111221313,0.20324605703353882,0.04738394170999527
1683588381308887000,11.401886962890625,-0.22020207345485687,0.27268746495246887,0.04781004786491394
1683588381318893800,11.411893798828125,-0.24724097549915314,0.2486596256494522,0.06003796309232712
1683588381328900900,11.42190087890625,-0.1947881579399109,0.1366172432899475,0.07296495139598846
1683588381338909000,11.431908935546875,-0.10801137983798981,0.028027724474668503,0.07910212129354477
1683588381348915700,11.441915771484375,-0.06938781589269638,0.029361968860030174,0.07521843165159225
1683588381358923000,11.451923095703124,-0.08956117928028107,0.11949972063302994,0.05700570344924927
1683588381368930800,11.461930908203126,-0.15862172842025757,0.21501345932483673,0.028185240924358368
1683588381378937900,11.471937744140625,-0.22741131484508514,0.23444800078868866,0.0024614091962575912
1683588381388945000,11.48194482421875,-0.2469559907913208,0.18444955348968506,-0.023101208731532097
1683588381398952000,11.491951904296876,-0.20167073607444763,0.11690109223127365,-0.04163198918104172
1683588381408959700,11.501959716796875,-0.10021735727787018,0.043153904378414154,-0.04326983168721199
1683588381418967000,11.511967041015625,0.000036768498830497265,0.014426812529563904,-0.033189114183187485
1683588381428973800,11.521973876953124,0.04973454773426056,0.04346352443099022,-0.019692210480570793
1683588381438980900,11.53198095703125,0.05657222121953964,0.0791548639535904,-0.006291376426815987
1683588381448989000,11.541989013671875,0.018498338758945465,0.12574873864650726,-0.012437686324119568
1683588381458995700,11.55199560546875,-0.05618326738476753,0.18024174869060516,-0.043302103877067566
1683588381469003000,11.5620029296875,-0.1120835542678833,0.20805419981479645,-0.06617412716150284
1683588381479010800,11.5720107421875,-0.11856386065483093,0.1928945928812027,-0.057963743805885315
1683588381489017900,11.582017822265625,0.023098992183804512,0.048819705843925476,0.013823891058564186
1683588381499025000,11.59202490234375,0.10976497828960419,-0.07287771254777908,0.06365588307380676
1683588381509031700,11.60203173828125,0.13196536898612976,-0.08091779798269272,0.06809643656015396
1683588381519039700,11.612039794921875,0.10250750929117203,0.02511787787079811,0.02356436662375927
1683588381529046800,11.622046875,0.08051273226737976,0.11987314373254776,-0.03992565721273422
1683588381539053800,11.6320537109375,0.016479410231113434,0.16329509019851685,-0.09924878925085068
1683588381549060900,11.642060791015625,-0.09277623891830444,0.13889279961585999,-0.13396601378917694
1683588381559069000,11.65206884765625,-0.1614399254322052,0.04854314774274826,-0.12799225747585297
1683588381569075700,11.66207568359375,-0.14303748309612274,-0.02691751904785633,-0.09203638881444931
1683588381579083000,11.6720830078125,-0.06406094878911972,-0.04723191633820534,-0.03255407139658928
1683588381589089800,11.68208984375,0.02584310807287693,0.0021651932038366795,0.02690552920103073
1683588381599097900,11.692097900390625,0.07287535816431046,0.10860896110534668,0.0644381046295166
1683588381609105000,11.70210498046875,0.06290927529335022,0.20724019408226013,0.07346221804618835
1683588381619111700,11.712111572265625,-0.0021426226012408733,0.23705799877643585,0.05468932166695595
1683588381629120000,11.7221201171875,-0.08357596397399902,0.16647598147392273,0.02538975514471531
1683588381639126800,11.732126708984374,-0.11197597533464432,0.05580931901931763,0.00957892183214426
1683588381649133800,11.7421337890625,-0.07604221254587173,-0.011371316388249397,0.0058006951585412025
1683588381659140900,11.752140869140625,-0.0026270831003785133,-0.021495060995221138,0.010519277304410934
1683588381669149000,11.76214892578125,0.07716362178325653,0.03746838867664337,0.021493632346391678
1683588381679155700,11.77215576171875,0.1134745180606842,0.14225612580776215,0.0338202565908432
1683588381689163000,11.7821630859375,0.10582618415355682,0.23522628843784332,0.04165501147508621
1683588381699169800,11.792169677734375,0.06789682805538177,0.26832783222198486,0.03852550685405731
1683588381709177900,11.802177734375,0.12135179340839386,0.05606376752257347,0.06962910294532776
1683588381719185000,11.812184814453126,0.09295640140771866,-0.027170520275831223,0.06721612066030502
1683588381729191700,11.822191650390625,0.14317110180854797,-0.15511010587215424,0.08927534520626068
1683588381739200000,11.832199951171875,0.17365841567516327,-0.1530141532421112,0.08763773739337921
1683588381749206800,11.842206787109374,0.2015014886856079,-0.0410788357257843,0.06267992407083511
1683588381759213800,11.8522138671875,0.22278308868408203,0.1281132996082306,0.02510439231991768
1683588381769220900,11.862220947265625,0.22003470361232758,0.27537599205970764,-0.010402735322713852
1683588381779229000,11.87222900390625,0.20284856855869293,0.291258841753006,-0.027394281700253487
1683588381789235700,11.882235595703126,0.16126278042793274,0.18023966252803802,-0.023818189278244972
1683588381799243000,11.892242919921875,0.10827884823083878,0.028813734650611877,-0.004376644268631935
1683588381809249800,11.902249755859375,0.07940538972616196,-0.053151972591876984,0.013939512893557549
1683588381819257900,11.9122578125,0.09233833849430084,-0.02174258604645729,0.013035010546445847
1683588381829265000,11.922264892578125,0.13052992522716522,0.06572575122117996,-0.01288527064025402
1683588381839271700,11.932271728515625,0.17096471786499023,0.1663053035736084,-0.054881419986486435
1683588381849280000,11.942280029296874,0.21983613073825836,0.24784091114997864,-0.09484481811523438
1683588381859286800,11.952286865234376,0.20258745551109314,0.32202500104904175,-0.12878742814064026
1683588381869293800,11.9622939453125,0.14765790104866028,0.34136009216308594,-0.13320721685886383
1683588381879300900,11.97230078125,0.10137388110160828,0.25691747665405273,-0.09049449861049652
1683588381889309000,11.982308837890624,0.07691061496734619,0.13784034550189972,-0.03419953212141991
1683588381899315700,11.992315673828125,0.07800547033548355,0.07058282196521759,-0.005952529143542051
1683588381909323000,12.002322998046875,0.10094727575778961,0.08243202418088913,-0.016698118299245834
1683588381919329800,12.012329833984374,0.12802937626838684,0.11494044214487076,-0.045183803886175156
1683588381929337900,12.022337890625,0.15793748199939728,0.11717136949300766,-0.0646808072924614
1683588381939345000,12.032344970703125,0.1657361090183258,0.0743459090590477,-0.06606357544660568
1683588381949351700,12.0423515625,0.14825351536273956,0.015873273834586143,-0.05185534060001373
1683588381959359000,12.05235888671875,0.11530577391386032,-0.021937191486358643,-0.025036564096808434
1683588381969366800,12.06236669921875,0.1057005524635315,-0.03502795845270157,0.008337904699146748
1683588381979373800,12.072373779296875,0.11909433454275131,-0.028885412961244583,0.037898506969213486
1683588381989380900,12.082380859375,0.1160319596529007,-0.0009717564098536968,0.0537581630051136
1683588381999388000,12.092387939453126,0.10059675574302673,0.02420908585190773,0.057073693722486496
1683588382009395700,12.102395751953125,0.08186780661344528,0.0337543860077858,0.05618526414036751
1683588382019403000,12.112403076171875,0.06846436858177185,0.026788318529725075,0.05365689843893051
1683588382029409800,12.122409912109376,0.06271886825561523,0.0071067605167627335,0.06660784780979156
1683588382039417900,12.13241796875,0.06893362104892731,-0.02342352829873562,0.09269066154956818
1683588382049425000,12.1424248046875,0.07460029423236847,-0.03457098826766014,0.11257249116897583
1683588382059431700,12.152431640625,0.07115260511636734,-0.025200925767421722,0.11229950934648514
1683588382069439000,12.16243896484375,0.07216992974281311,-0.030522720888257027,0.09309758991003036
1683588382079446800,12.17244677734375,0.060161273926496506,-0.050557609647512436,0.06519103050231934
1683588382089453800,12.182453857421875,0.0267306137830019,-0.0611596554517746,0.041910476982593536
1683588382099460900,12.1924609375,-0.008635664358735085,-0.05137607455253601,0.0316171757876873
1683588382109468000,12.202468017578125,-0.0374356210231781,-0.025723440572619438,0.03432134911417961
1683588382119476000,12.21247607421875,-0.04202527552843094,0.0016194964991882443,0.0371679961681366
1683588382129483000,12.22248291015625,-0.02951960265636444,0.007181508466601372,0.041279386729002
1683588382139489800,12.23248974609375,-0.02181917242705822,-0.01772851124405861,0.03705045208334923
1683588382149496800,12.242496826171875,-0.018898749724030495,-0.052315518260002136,0.019963610917329788
1683588382159505000,12.2525048828125,-0.021953046321868896,-0.06709621846675873,-0.0026006815023720264
1683588382169511700,12.26251171875,-0.03562358394265175,-0.05947984755039215,-0.026819735765457153
1683588382179519000,12.27251904296875,-0.05963599681854248,-0.058119997382164,-0.0441092774271965
1683588382189525800,12.28252587890625,-0.0861099511384964,-0.0644141137599945,-0.04748510196805
1683588382199533800,12.292533935546874,-0.0902155190706253,-0.060473959892988205,-0.051083821803331375
1683588382209540900,12.302540771484376,-0.07280749827623367,-0.06291607767343521,-0.05220687761902809
1683588382219548000,12.3125478515625,-0.040729932487010956,-0.0676666721701622,-0.06168504059314728
1683588382229556000,12.322555908203125,-0.00324726989492774,-0.07711556553840637,-0.08510328084230423
1683588382239563000,12.33256298828125,0.030748998746275902,-0.11382601410150528,-0.12063425779342651
