time,seconds_elapsed,z,y,x
1684167988813836000,0.0158359375,-0.011684173718094826,-0.033619947731494904,-0.030481386929750443
1684167988823855000,0.025855224609375,0.0013765011681243777,-0.018230339512228966,-0.0717281624674797
1684167988833873200,0.035873046875,0.01656634919345379,0.03680819272994995,-0.10753187537193298
1684167988843892200,0.045892333984375,0.025332145392894745,0.13285189867019653,-0.12958790361881256
1684167988853910300,0.05591015625,0.02269597165286541,0.2250160425901413,-0.13522623479366302
1684167988863929000,0.06592919921875,0.015197309665381908,0.2872421443462372,-0.11883500218391418
1684167988873947100,0.075947021484375,0.0024387247394770384,0.3177022337913513,-0.09426887333393097
1684167988883966200,0.08596630859375,-0.00574330473318696,0.30711644887924194,-0.06328006088733673
1684167988893984000,0.09598388671875,-0.001809472218155861,0.26599636673927307,-0.03449966758489609
1684167988904003000,0.106003173828125,0.005205560475587845,0.21030327677726746,-0.034725237637758255
1684167988914021000,0.116021240234375,0.0013261440908536315,0.17102165520191193,-0.04707225784659386
1684167988924040200,0.126040283203125,0.011242424137890339,0.17511306703090668,-0.062164656817913055
1684167988934058200,0.136058349609375,0.027920804917812347,0.22368238866329193,-0.08302552253007889
1684167988944076000,0.146075927734375,0.05262268707156181,0.312870055437088,-0.09990250319242477
1684167988954095000,0.15609521484375,0.07247598469257355,0.4191502034664154,-0.1301632970571518
1684167988964113000,0.16611279296875,0.0670202374458313,0.530178964138031,-0.16774210333824158
1684167988974132000,0.176132080078125,0.05421330779790878,0.632012128829956,-0.2043943554162979
1684167988984150300,0.186150390625,0.026523888111114502,0.7326849699020386,-0.22899317741394043
1684167988994169000,0.196169189453125,-0.0008451416506431997,0.8340515494346619,-0.25480806827545166
1684167989004187100,0.206187255859375,-0.04211854562163353,0.9280475974082947,-0.285638689994812
1684167989014206200,0.216206298828125,-0.09011678397655487,1.0072356462478638,-0.3315623104572296
1684167989024224000,0.22622412109375,-0.1443541795015335,1.0697778463363647,-0.3869078457355499
1684167989034243000,0.2362431640625,-0.1829133927822113,1.1214022636413574,-0.4430580139160156
1684167989044261000,0.24626123046875,-0.1963983029127121,1.1785978078842163,-0.4786580801010132
1684167989054280000,0.256280029296875,-0.18182426691055298,1.2341798543930054,-0.47549083828926086
1684167989064298200,0.26629833984375,-0.14636294543743134,1.2852848768234253,-0.4356912076473236
1684167989074317300,0.2763173828125,-0.13025625050067902,1.3062405586242676,-0.37223973870277405
1684167989084335000,0.286335205078125,-0.13795651495456696,1.2846876382827759,-0.3064703345298767
1684167989094354200,0.296354248046875,-0.17075775563716888,1.236168622970581,-0.2545417547225952
1684167989104372000,0.3063720703125,-0.20666222274303436,1.1652990579605103,-0.2265082597732544
1684167989114391000,0.31639111328125,-0.22272421419620514,1.0664410591125488,-0.23152829706668854
1684167989124409000,0.3264091796875,-0.2175009548664093,0.9246079921722412,-0.3092433214187622
1684167989134428000,0.336427978515625,-0.21496695280075073,0.715864360332489,-0.48062971234321594
1684167989144446200,0.3464462890625,-0.239264577627182,0.46365928649902344,-0.7058127522468567
1684167989154465300,0.35646533203125,-0.31003203988075256,0.21982942521572113,-0.9348627924919128
1684167989164483000,0.366483154296875,-0.41290783882141113,0.04203494265675545,-1.1089775562286377
1684167989174502100,0.376502197265625,-0.5314483046531677,-0.07110922783613205,-1.2133878469467163
1684167989184520000,0.38652001953125,-0.6466297507286072,-0.1368059366941452,-1.2659682035446167
1684167989194539000,0.3965390625,-0.7374892830848694,-0.17284956574440002,-1.2844429016113281
1684167989204557000,0.40655712890625,-0.7902704477310181,-0.19230875372886658,-1.27653169631958
1684167989214576000,0.416576171875,-0.7988514304161072,-0.21086618304252625,-1.2535678148269653
1684167989224594200,0.42659423828125,-0.7729007601737976,-0.24067601561546326,-1.2221357822418213
1684167989234612200,0.4366123046875,-0.7168374061584473,-0.2911269962787628,-1.1876208782196045
1684167989244631000,0.446631103515625,-0.6386773586273193,-0.3777119517326355,-1.1545896530151367
1684167989254649000,0.456649169921875,-0.5440849661827087,-0.4976554811000824,-1.1293059587478638
1684167989264668200,0.466668212890625,-0.43730100989341736,-0.6571710705757141,-1.1026349067687988
1684167989274686200,0.476686279296875,-0.31970083713531494,-0.848037600517273,-1.0872154235839844
1684167989284705300,0.486705322265625,-0.2071138173341751,-1.0612270832061768,-1.0747350454330444
1684167989294723000,0.49672314453125,-0.0952308177947998,-1.2896270751953125,-1.0488524436950684
1684167989304742100,0.5067421875,-0.030918674543499947,-1.5289212465286255,-1.0010584592819214
1684167989314760200,0.51676025390625,-0.11666659265756607,-1.7820533514022827,-0.8992525935173035
1684167989324779000,0.526779052734375,-0.5236785411834717,-2.4011309146881104,-0.6533088684082031
1684167989334797000,0.536797119140625,-0.8911479711532593,-2.8637514114379883,-0.09157600998878479
1684167989344816000,0.546816162109375,-0.9660645127296448,-2.7845375537872314,0.6944562792778015
1684167989354834200,0.556834228515625,-0.7927449345588684,-2.605839490890503,1.116064190864563
1684167989364853200,0.566853271484375,-0.4437861740589142,-2.495070457458496,1.2633187770843506
1684167989374871000,0.57687109375,0.006506461184471846,-2.5084638595581055,1.2197527885437012
1684167989384890000,0.58689013671875,0.49924078583717346,-2.5886640548706055,1.0715827941894531
1684167989394908200,0.596908203125,0.9791872501373291,-2.6122443675994873,0.9224377274513245
1684167989404927000,0.606927001953125,1.3546409606933594,-2.52062726020813,0.8224666714668274
1684167989414945000,0.616945068359375,1.5620920658111572,-2.369199514389038,0.8131747841835022
1684167989424964000,0.626964111328125,1.5783344507217407,-2.166823387145996,0.9220296740531921
1684167989434982100,0.636982177734375,1.4328583478927612,-1.9027115106582642,1.1769263744354248
1684167989445001200,0.647001220703125,1.2247122526168823,-1.582571029663086,1.5287081003189087
1684167989455019000,0.65701904296875,1.1154927015304565,-1.1954978704452515,1.7830811738967896
1684167989465038000,0.6670380859375,1.1478415727615356,-0.8075567483901978,1.7788960933685303
1684167989475056000,0.67705615234375,1.2058265209197998,-0.4563072919845581,1.5438755750656128
1684167989485075000,0.687074951171875,1.1947808265686035,-0.11365273594856262,1.1464712619781494
1684167989495093000,0.697093017578125,1.1166415214538574,0.17322701215744019,0.7178123593330383
1684167989505112000,0.707112060546875,0.9837254881858826,0.4468356668949127,0.4041825532913208
1684167989515130000,0.717130126953125,0.8277868032455444,0.7578245997428894,0.3176926076412201
1684167989525148200,0.727148193359375,0.6937952041625977,0.9547778964042664,0.4760119318962097
1684167989535167200,0.737167236328125,0.6141816973686218,0.7951687574386597,0.7618448138237
1684167989545185000,0.74718505859375,0.5902859568595886,0.2899724245071411,0.9695524573326111
1684167989555204000,0.7572041015625,0.6324939131736755,-0.31314659118652344,1.0203883647918701
1684167989565222100,0.76722216796875,0.6936566233634949,-0.7594234347343445,0.9679994583129883
1684167989575241200,0.7772412109375,0.7256143689155579,-0.9371524453163147,0.915412962436676
1684167989585259300,0.78725927734375,0.6988480091094971,-0.8243905305862427,0.9079233407974243
1684167989595278000,0.797278076171875,0.6615483164787292,-0.5096637606620789,0.9748286604881287
1684167989605296000,0.807296142578125,0.6689945459365845,-0.10231728851795197,1.1051734685897827
1684167989615316000,0.81731591796875,0.7336277961730957,0.3216233551502228,1.243666648864746
1684167989625333800,0.827333740234375,0.8007373213768005,0.7091873288154602,1.3371537923812866
1684167989635352800,0.837352783203125,0.7962638139724731,1.054461121559143,1.3459267616271973
1684167989645371000,0.847370849609375,0.7092050313949585,1.3061405420303345,1.267098307609558
1684167989655389700,0.8573896484375,0.5329960584640503,1.4320824146270752,1.1349546909332275
1684167989665408000,0.867407958984375,0.2813035845756531,1.475163221359253,0.9586673378944397
1684167989675427000,0.877427001953125,-0.0012141880579292774,1.4841293096542358,0.7514433264732361
1684167989685444900,0.88744482421875,-0.2638285160064697,1.5234687328338623,0.5413113832473755
1684167989695464000,0.8974638671875,-0.4014337360858917,1.5574098825454712,0.3807530403137207
1684167989705481700,0.907481689453125,-0.36611515283584595,1.4462716579437256,0.40396782755851746
1684167989715500800,0.917500732421875,-0.1454928070306778,0.9919220209121704,0.6416787505149841
1684167989725518800,0.927518798828125,0.200930655002594,0.2309032827615738,1.015498399734497
1684167989735537700,0.93753759765625,0.5341941118240356,-0.48933321237564087,1.3976154327392578
1684167989745556000,0.947555908203125,0.7394385933876038,-0.803878903388977,1.6848951578140259
1684167989755575000,0.957574951171875,0.7876800894737244,-0.49917829036712646,1.7848085165023804
1684167989765592800,0.9675927734375,0.7251994013786316,0.28498974442481995,1.6611601114273071
1684167989775612000,0.97761181640625,0.6211833953857422,1.158347249031067,1.4118051528930664
1684167989785629700,0.987629638671875,0.5034652352333069,1.800549030303955,1.0867270231246948
1684167989795648800,0.997648681640625,0.38618165254592896,2.049765110015869,0.7385239005088806
1684167989805666800,1.007666748046875,0.2613137662410736,1.880597710609436,0.4300936460494995
1684167989815685600,1.017685546875,0.13147376477718353,1.3946735858917236,0.1789723038673401
1684167989825704000,1.027703857421875,-0.021473698318004608,0.7722017168998718,-0.0372643880546093
1684167989835722000,1.037721923828125,-0.20064660906791687,0.21831904351711273,-0.2370736002922058
1684167989845740800,1.04774072265625,-0.3891313076019287,-0.15465906262397766,-0.4149746298789978
1684167989855758800,1.0577587890625,-0.5395229458808899,-0.37434959411621094,-0.5847175717353821
1684167989865778000,1.06777783203125,-0.641120433807373,-0.5032338500022888,-0.7742717862129211
1684167989875796000,1.0777958984375,-0.7312873005867004,-0.5504910945892334,-0.9748267531394958
1684167989885814800,1.087814697265625,-0.844147264957428,-0.5685651898384094,-1.185194969177246
1684167989895832800,1.097832763671875,-0.9515997767448425,-0.5729193687438965,-1.411150336265564
1684167989905852000,1.107851806640625,-1.062272071838379,-0.5624624490737915,-1.6373884677886963
1684167989915870000,1.117869873046875,-1.139638900756836,-0.5340598225593567,-1.8488502502441406
1684167989925888800,1.127888671875,-1.1759705543518066,-0.45593681931495667,-2.0518805980682373
1684167989935906800,1.13790673828125,-1.175336241722107,-0.29727062582969666,-2.2412006855010986
1684167989945926000,1.14792578125,-1.1609203815460205,-0.06904011219739914,-2.390612840652466
1684167989955944000,1.15794384765625,-1.1273874044418335,0.2565336525440216,-2.4822986125946045
1684167989965963000,1.167962890625,-1.0709185600280762,0.6926491260528564,-2.51543927192688
1684167989975980800,1.177980712890625,-0.9945030808448792,1.2439967393875122,-2.459153413772583
1684167989986000000,1.187999755859375,-0.911950409412384,1.8199937343597412,-2.319676637649536
1684167989996018000,1.198017822265625,-0.835006058216095,2.2701988220214844,-2.156747817993164
1684167990006036700,1.20803662109375,-0.7874795198440552,2.5098628997802734,-2.0247395038604736
1684167990016054800,1.2180546875,-0.7561327219009399,2.5000193119049072,-1.9542039632797241
1684167990026073900,1.228073974609375,-0.7325578927993774,2.2595486640930176,-1.9620482921600342
1684167990036092000,1.238091796875,-0.7064294815063477,1.8515394926071167,-2.044036388397217
1684167990046111000,1.248111083984375,-0.6981225609779358,1.3356555700302124,-2.188600540161133
1684167990056129000,1.25812890625,-0.7289406061172485,0.8024307489395142,-2.3705687522888184
1684167990066147800,1.26814794921875,-0.8113002181053162,0.3440221846103668,-2.5710604190826416
1684167990076166000,1.278165771484375,-0.9293378591537476,-0.031025491654872894,-2.7920823097229004
1684167990086185000,1.28818505859375,-1.0500179529190063,-0.2892453074455261,-3.0083677768707275
1684167990096202800,1.29820263671875,-1.1308658123016357,-0.4721984267234802,-3.2011756896972656
1684167990106221800,1.308221923828125,-1.1534597873687744,-0.6370574235916138,-3.3724539279937744
1684167990116240000,1.318239990234375,-1.1028532981872559,-0.822605550289154,-3.5420660972595215
1684167990126258000,1.3282578125,-1.0009663105010986,-1.0055210590362549,-3.715592622756958
1684167990136277000,1.338277099609375,-0.8749994039535522,-1.1448144912719727,-3.86728572845459
1684167990146294800,1.348294677734375,-0.7646649479866028,-1.1375666856765747,-3.9066028594970703
1684167990156313900,1.35831396484375,-0.7033078670501709,-0.9706071019172668,-3.808882236480713
1684167990166331600,1.36833154296875,-0.6998018026351929,-0.8494482040405273,-3.6106066703796387
1684167990176350700,1.378350830078125,-0.7212541103363037,-1.0893765687942505,-3.4609739780426025
1684167990186369000,1.388369140625,-0.6796537041664124,-1.6912987232208252,-3.4372453689575195
1684167990196387800,1.398387939453125,-0.5887410640716553,-2.390961170196533,-3.5141091346740723
1684167990206406000,1.408406005859375,-0.46615415811538696,-2.9874684810638428,-3.609463691711426
1684167990216425000,1.418425048828125,-0.29904893040657043,-3.437962293624878,-3.652844190597534
1684167990226442800,1.42844287109375,-0.10287649929523468,-3.6617519855499268,-3.5368118286132812
1684167990236461800,1.4384619140625,0.031203020364046097,-3.630598306655884,-3.2244770526885986
1684167990246480000,1.44847998046875,0.12425466626882553,-3.005951166152954,-2.6458215713500977
1684167990256498700,1.458498779296875,0.23946528136730194,-1.472859501838684,-1.7239173650741577
1684167990266517000,1.46851708984375,0.39732229709625244,0.398303747177124,-0.7517282962799072
1684167990276535800,1.478535888671875,0.6042807102203369,1.6028709411621094,-0.21055708825588226
1684167990286553900,1.488553955078125,0.8303034901618958,1.7485182285308838,-0.2412489503622055
1684167990296573000,1.498572998046875,1.0405192375183105,1.2375752925872803,-0.6196029782295227
1684167990306590700,1.5085908203125,1.1543667316436768,0.6945163011550903,-1.0290197134017944
1684167990316609800,1.51860986328125,1.1637088060379028,0.6984008550643921,-1.238645315170288
1684167990326628000,1.528628173828125,1.0618934631347656,1.0822303295135498,-1.3206405639648438
1684167990336647000,1.53864697265625,0.8517879843711853,1.2078394889831543,-1.4790775775909424
1684167990346665000,1.5486650390625,0.5940552353858948,0.7900949716567993,-1.780277132987976
1684167990356684000,1.55868408203125,0.2378353327512741,0.12416864931583405,-2.0227274894714355
1684167990366701800,1.568701904296875,-0.22546148300170898,-0.0966593325138092,-1.9300804138183594
1684167990376720000,1.578719970703125,-0.6512876749038696,0.33752256631851196,-1.4425971508026123
1684167990386738700,1.58873876953125,-0.7867943644523621,0.6330151557922363,-1.0030455589294434
1684167990396757000,1.598757080078125,-0.5458300709724426,0.22625470161437988,-0.8730963468551636
1684167990406776000,1.608776123046875,-0.14657506346702576,-0.7108086347579956,-0.945462167263031
1684167990416793900,1.6187939453125,0.0963515192270279,-1.536788821220398,-0.9964287281036377
1684167990426813000,1.62881298828125,0.16725392639636993,-2.007166624069214,-0.9728062152862549
1684167990436830700,1.638830810546875,0.19286902248859406,-2.049314260482788,-0.8008465766906738
1684167990446849800,1.648849853515625,0.2340654730796814,-1.5590217113494873,-0.47769224643707275
1684167990456867800,1.658867919921875,0.3153172433376312,-0.7654844522476196,-0.12958329916000366
1684167990466886700,1.66888671875,0.38986605405807495,-0.17564703524112701,0.0806112065911293
1684167990476905000,1.678905029296875,0.4529746472835541,-0.02056468278169632,0.10175196826457977
1684167990486924000,1.688924072265625,0.46534478664398193,-0.1340254694223404,0.06307834386825562
1684167990496941800,1.69894189453125,0.43394941091537476,-0.3884924650192261,0.05373614653944969
1684167990506961000,1.7089609375,0.3579811453819275,-0.7248347997665405,0.09478797018527985
1684167990516979000,1.71897900390625,0.29111576080322266,-1.1086825132369995,0.18187232315540314
1684167990526997800,1.728997802734375,0.26282554864883423,-1.5164446830749512,0.3017800748348236
1684167990537015800,1.739015869140625,0.2513221502304077,-1.8497251272201538,0.4010311961174011
1684167990547035000,1.749034912109375,0.2690284252166748,-2.0156102180480957,0.4716057777404785
1684167990557053000,1.759052978515625,0.2818393111228943,-2.0316786766052246,0.5659050941467285
1684167990567072000,1.769072021484375,0.2749236226081848,-1.8942272663116455,0.6555649638175964
1684167990577089800,1.77908984375,0.28170743584632874,-1.6082640886306763,0.7482866048812866
1684167990587108900,1.78910888671875,0.29152995347976685,-1.308427095413208,0.9010570049285889
1684167990597127000,1.799126953125,0.3032081425189972,-1.0777944326400757,1.031356692314148
1684167990607145700,1.809145751953125,0.3342784345149994,-1.1805322170257568,0.9952828884124756
1684167990617163300,1.819163330078125,0.3579902648925781,-1.5439432859420776,0.8104274272918701
1684167990627182300,1.829182373046875,0.33860698342323303,-2.1029257774353027,0.585693359375
1684167990637200100,1.8392001953125,0.24547088146209717,-2.795717716217041,0.3557549715042114
1684167990647218200,1.84921826171875,0.11615470796823502,-3.426795721054077,0.12585625052452087
1684167990657237200,1.8592373046875,0.0008962657302618027,-3.882326364517212,-0.09030365198850632
1684167990667255000,1.869255126953125,-0.07744380831718445,-4.0532402992248535,-0.23505178093910217
1684167990677274000,1.879274169921875,-0.0861581414937973,-3.8765342235565186,-0.2687282860279083
1684167990687292200,1.889292236328125,-0.004961023107171059,-3.34794282913208,-0.18199022114276886
1684167990697311200,1.899311279296875,0.05059977248311043,-2.4628002643585205,-0.005461042281240225
1684167990707329300,1.909329345703125,-0.034386225044727325,-1.5662671327590942,0.17045725882053375
1684167990717348000,1.91934814453125,-0.16148044168949127,-0.9039374589920044,0.25656211376190186
1684167990727366100,1.9293662109375,-0.24399502575397491,-0.525088369846344,0.18108654022216797
1684167990737385200,1.93938525390625,-0.23830077052116394,-0.2547084391117096,-0.08667158335447311
1684167990747403300,1.9494033203125,-0.14341047406196594,0.05789767578244209,-0.5024741291999817
1684167990757422300,1.95942236328125,0.009177612140774727,0.443896621465683,-0.9859828948974609
1684167990767440100,1.969440185546875,0.24872975051403046,0.9320140480995178,-1.5039770603179932
1684167990777459200,1.979459228515625,0.4934220016002655,1.4232741594314575,-1.9505631923675537
1684167990787477200,1.989477294921875,0.6060593724250793,1.88239586353302,-2.240015745162964
1684167990797496000,1.99949609375,0.43875211477279663,2.154261589050293,-2.2597949504852295
1684167990807514000,2.00951416015625,0.0513593852519989,2.2801196575164795,-2.047166585922241
1684167990817533200,2.019533203125,-0.2784363925457001,2.335688591003418,-1.7345043420791626
1684167990827551200,2.02955126953125,-0.3682911694049835,2.4093449115753174,-1.4042930603027344
1684167990837570300,2.0395703125,-0.3092665672302246,2.5699610710144043,-1.1049998998641968
1684167990847588400,2.04958837890625,-0.19242648780345917,2.7869718074798584,-0.865840494632721
1684167990857607200,2.059607177734375,-0.05753691494464874,3.041748285293579,-0.6817330121994019
1684167990867625200,2.069625244140625,0.07553032040596008,3.295621156692505,-0.5677425265312195
1684167990877643000,2.07964306640625,0.19556951522827148,3.537149667739868,-0.5187544226646423
1684167990887662000,2.089662109375,0.28773778676986694,3.741891384124756,-0.5332878232002258
1684167990897680400,2.099680419921875,0.3155424892902374,3.853184223175049,-0.5968840718269348
1684167990907699200,2.10969921875,0.2654755711555481,3.800227642059326,-0.7132647037506104
1684167990917717200,2.11971728515625,0.15503492951393127,3.5276308059692383,-0.8903090357780457
1684167990927736300,2.129736328125,-0.010985737666487694,3.051126718521118,-1.1087497472763062
1684167990937754000,2.139754150390625,-0.19523745775222778,2.4218127727508545,-1.3269392251968384
1684167990947773200,2.149773193359375,-0.3656957149505615,1.691074252128601,-1.521009922027588
1684167990957791000,2.159791015625,-0.49928945302963257,0.8690254092216492,-1.6580023765563965
1684167990967810000,2.16981005859375,-0.5683476328849792,0.03595532476902008,-1.713548183441162
1684167990977828400,2.179828369140625,-0.57975834608078,-0.658294677734375,-1.6622161865234375
1684167990987847200,2.18984716796875,-0.5418226718902588,-1.0570611953735352,-1.534710168838501
1684167990997865200,2.199865234375,-0.4720781445503235,-1.1985777616500854,-1.3648127317428589
1684167991007884300,2.20988427734375,-0.3815879225730896,-1.2118607759475708,-1.2054824829101562
1684167991017902000,2.219902099609375,-0.3271154761314392,-1.1423362493515015,-1.008996844291687
1684167991027921200,2.229921142578125,-0.30073925852775574,-0.9028016328811646,-0.7517639994621277
1684167991037939200,2.239939208984375,-0.29005488753318787,-0.508869469165802,-0.4609668552875519
1684167991047958000,2.2499580078125,-0.2522529065608978,0.07703899592161179,-0.1435561627149582
1684167991057976300,2.259976318359375,-0.14923648536205292,0.7417751550674438,0.19777430593967438
1684167991067995400,2.269995361328125,0.0021575724240392447,1.4047198295593262,0.5697218179702759
1684167991078013200,2.28001318359375,0.21898409724235535,2.1299452781677246,0.9242841601371765
1684167991088032300,2.2900322265625,0.460238516330719,2.756035327911377,1.1872388124465942
1684167991098050000,2.300050048828125,0.7331110835075378,3.23956561088562,1.2417114973068237
1684167991108069000,2.310069091796875,0.9920257329940796,3.572667360305786,1.000058889389038
1684167991118087200,2.320087158203125,1.1762123107910156,3.6927547454833984,0.5370177030563354
1684167991128105200,2.330105224609375,1.2842189073562622,3.690922260284424,-0.014341885223984718
1684167991138124300,2.340124267578125,1.2492902278900146,3.550175189971924,-0.3213191032409668
1684167991148142000,2.35014208984375,1.091458797454834,2.945394277572632,-0.1975870430469513
1684167991158161200,2.3601611328125,0.8475354313850403,1.4835246801376343,0.07281620800495148
1684167991168179200,2.37017919921875,0.5981615781784058,-0.46369221806526184,0.26027530431747437
1684167991178198000,2.380197998046875,0.31200236082077026,-1.9367400407791138,0.21910183131694794
1684167991188216300,2.39021630859375,-0.0385250486433506,-2.354839324951172,-0.02622191049158573
1684167991198235400,2.4002353515625,-0.3461487293243408,-1.9873037338256836,-0.25850415229797363
1684167991208253200,2.410253173828125,-0.5041713714599609,-1.311079978942871,-0.2498515546321869
1684167991218272300,2.420272216796875,-0.4593035876750946,-0.9229773879051208,-0.07842925935983658
1684167991228290000,2.4302900390625,-0.24246077239513397,-1.5326663255691528,0.0366310179233551
1684167991238309000,2.44030908203125,0.01631188578903675,-2.8580267429351807,0.02653847075998783
1684167991248327200,2.4503271484375,0.12923869490623474,-4.290660858154297,-0.03573262691497803
1684167991258346000,2.460345947265625,0.10310396552085876,-5.4079909324646,-0.06594792753458023
1684167991268364300,2.4703642578125,0.03374033421278,-5.932973861694336,-0.13728494942188263
1684167991278383400,2.48038330078125,-0.02418695017695427,-5.73072624206543,-0.3169577419757843
1684167991288401200,2.490401123046875,-0.03469870984554291,-4.963682651519775,-0.5428323745727539
1684167991298420200,2.500420166015625,-0.008772306144237518,-3.9888756275177,-0.762489378452301
1684167991308438300,2.510438232421875,0.0441734679043293,-3.0121853351593018,-0.8799595236778259
1684167991318457000,2.52045703125,0.10292286425828934,-2.1141574382781982,-0.8514701724052429
1684167991328475100,2.53047509765625,0.18708620965480804,-1.3255008459091187,-0.7006199359893799
1684167991338494200,2.540494140625,0.3200315535068512,-0.6402426362037659,-0.4499130845069885
1684167991348512300,2.55051220703125,0.532939076423645,-0.07462181895971298,-0.15256769955158234
1684167991358530300,2.5605302734375,0.8370915651321411,0.2436596304178238,0.08683022111654282
1684167991368549000,2.570549072265625,1.1688541173934937,0.09671599417924881,0.13862203061580658
1684167991378567200,2.580567138671875,1.4536153078079224,-0.5016530156135559,0.019182749092578888
1684167991388586200,2.590586181640625,1.5972437858581543,-1.4513202905654907,-0.24895575642585754
1684167991398604000,2.60060400390625,1.513698697090149,-2.6606998443603516,-0.5617325901985168
1684167991408623000,2.610623046875,1.146316409111023,-3.7396109104156494,-0.7328217625617981
1684167991418641200,2.62064111328125,0.533292293548584,-4.204784870147705,-0.6450513601303101
1684167991428660200,2.63066015625,-0.11831634491682053,-4.097834587097168,-0.38103458285331726
1684167991438678300,2.64067822265625,-0.5499817728996277,-3.86018443107605,-0.08868251740932465
1684167991448697000,2.650697021484375,-0.6782252788543701,-3.7357826232910156,0.1535799205303192
1684167991458715100,2.660715087890625,-0.5861455202102661,-3.706143617630005,0.33495256304740906
1684167991468734200,2.670734130859375,-0.36036908626556396,-3.6273043155670166,0.46402665972709656
1684167991478752300,2.680752197265625,-0.15192574262619019,-3.4433224201202393,0.61604243516922
1684167991488771300,2.690771240234375,-0.014611020684242249,-3.1466214656829834,0.762866199016571
1684167991498789400,2.700789306640625,0.07232842594385147,-2.7153329849243164,0.8343661427497864
1684167991508808200,2.71080810546875,0.13183197379112244,-2.1389825344085693,0.791059136390686
1684167991518826200,2.720826171875,0.1735614687204361,-1.3897030353546143,0.6627596616744995
1684167991528845300,2.73084521484375,0.2002708464860916,-0.43688419461250305,0.5073288083076477
1684167991538863000,2.740863037109375,0.20760180056095123,0.7797869443893433,0.37820354104042053
1684167991548882200,2.750882080078125,0.19695235788822174,2.2338309288024902,0.2968383729457855
1684167991558900200,2.760900146484375,0.17397114634513855,3.7236063480377197,0.26753315329551697
1684167991568919300,2.770919189453125,0.13837319612503052,5.073730945587158,0.16542382538318634
1684167991578937300,2.780937255859375,0.11895670741796494,5.881948471069336,-0.10035204887390137
1684167991588955100,2.790955078125,0.11669408529996872,5.859399318695068,-0.4813409447669983
1684167991598974200,2.80097412109375,0.13378089666366577,4.933725357055664,-0.9527797102928162
1684167991608992000,2.810991943359375,0.16032648086547852,3.3561792373657227,-1.4184478521347046
1684167991619010600,2.821010498046875,0.1329088658094406,1.611901044845581,-1.7117083072662354
1684167991629028600,2.831028564453125,-0.04638206213712692,0.07950160652399063,-1.7486023902893066
1684167991639047700,2.841047607421875,-0.41741251945495605,-1.2412292957305908,-1.6291370391845703
1684167991649065500,2.8510654296875,-0.841517448425293,-2.3350284099578857,-1.4964125156402588
1684167991659084500,2.86108447265625,-1.1478558778762817,-2.962818145751953,-1.4595534801483154
1684167991669102600,2.8711025390625,-1.3121020793914795,-2.8720510005950928,-1.4900740385055542
1684167991679121400,2.881121337890625,-1.3888179063796997,-2.1445913314819336,-1.4515047073364258
1684167991689139700,2.8911396484375,-1.3388683795928955,-1.18409264087677,-1.426813006401062
1684167991699158800,2.90115869140625,-1.1740885972976685,-0.25529977679252625,-1.4392049312591553
1684167991709176600,2.911176513671875,-1.0233246088027954,0.5439249873161316,-1.3761622905731201
1684167991719195600,2.921195556640625,-0.9376431107521057,1.122797966003418,-1.243293046951294
1684167991729213400,2.93121337890625,-0.8634461164474487,1.49063241481781,-1.0833408832550049
1684167991739232500,2.941232421875,-0.7972903251647949,1.696075439453125,-0.9140092134475708
1684167991749250600,2.95125048828125,-0.6901446580886841,1.7636570930480957,-0.7810615301132202
1684167991759269400,2.961269287109375,-0.527938723564148,1.7638574838638306,-0.6719802021980286
1684167991769287700,2.97128759765625,-0.31969359517097473,1.7415281534194946,-0.5966103672981262
1684167991779306800,2.981306640625,-0.11052811145782471,1.6965044736862183,-0.5371643900871277
1684167991789324500,2.991324462890625,0.033462874591350555,1.6471185684204102,-0.4876118004322052
1684167991799343600,3.001343505859375,0.09212972968816757,1.6271960735321045,-0.43264585733413696
1684167991809361400,3.011361328125,0.09985768795013428,1.6457362174987793,-0.35780543088912964
1684167991819379500,3.02137939453125,0.09790750592947006,1.6837725639343262,-0.2639620006084442
1684167991829398500,3.0313984375,0.13905520737171173,1.7513388395309448,-0.16160020232200623
1684167991839416600,3.04141650390625,0.2047720104455948,1.8689398765563965,-0.010081271640956402
1684167991849435600,3.051435546875,0.23531846702098846,1.9870352745056152,0.2079131007194519
1684167991859453700,3.06145361328125,0.22408752143383026,2.162449359893799,0.4487926661968231
1684167991869472500,3.071472412109375,0.2309502214193344,2.474665880203247,0.6747288703918457
1684167991879490600,3.081490478515625,0.3185882568359375,2.8378167152404785,0.8317877054214478
1684167991889509600,3.091509521484375,0.4456271529197693,3.223574161529541,0.8970292806625366
1684167991899527400,3.10152734375,0.5739065408706665,3.4954800605773926,0.8690389394760132
1684167991909546500,3.11154638671875,0.6297426223754883,3.4990036487579346,0.7798448801040649
1684167991919564500,3.121564453125,0.6017656922340393,3.195582628250122,0.6446900367736816
1684167991929583600,3.13158349609375,0.5017935633659363,2.7545084953308105,0.48039671778678894
1684167991939601700,3.1416015625,0.3549950420856476,2.3811800479888916,0.2996082305908203
1684167991949620500,3.151620361328125,0.17971378564834595,2.114506483078003,0.1382368952035904
1684167991959638500,3.161638427734375,0.04382582753896713,1.834122657775879,0.05403631925582886
1684167991969657600,3.17165771484375,-0.014614047482609749,1.4902803897857666,0.03661471605300903
1684167991979675600,3.181675537109375,0.026097506284713745,1.0879324674606323,0.038666024804115295
1684167991989694700,3.19169482421875,0.11306703090667725,0.6685978770256042,0.03732246160507202
1684167991999712500,3.20171240234375,0.19774433970451355,0.19719122350215912,0.033283334225416183
1684167992009731600,3.211731689453125,0.20956610143184662,-0.28555595874786377,0.035879652947187424
1684167992019749600,3.22174951171875,0.12985780835151672,-0.6843482255935669,0.02467937394976616
1684167992029767400,3.231767333984375,-0.007812959142029285,-0.9425989389419556,-0.007234351709485054
1684167992039786500,3.241786376953125,-0.1529502123594284,-1.0446200370788574,-0.06141054257750511
1684167992049804800,3.2518046875,-0.24017752707004547,-1.0482752323150635,-0.12956136465072632
1684167992059823600,3.26182373046875,-0.2510469853878021,-1.0574694871902466,-0.21794256567955017
1684167992069841700,3.271841552734375,-0.21840247511863708,-1.1439831256866455,-0.27578747272491455
1684167992079860700,3.28186083984375,-0.19290980696678162,-1.2903081178665161,-0.28534549474716187
1684167992089878500,3.29187841796875,-0.18028536438941956,-1.4298841953277588,-0.26077356934547424
1684167992099897600,3.301897705078125,-0.1714230477809906,-1.4933797121047974,-0.22874349355697632
1684167992109915400,3.311915283203125,-0.1569516956806183,-1.4355944395065308,-0.19543613493442535
1684167992119934500,3.3219345703125,-0.14902974665164948,-1.2689144611358643,-0.1553094983100891
1684167992129952800,3.331952880859375,-0.14398358762264252,-1.0265742540359497,-0.09410712867975235
1684167992139971600,3.3419716796875,-0.14171092212200165,-0.7725597620010376,-0.03452416881918907
1684167992149989600,3.35198974609375,-0.11780798435211182,-0.5477039813995361,0.010293633677065372
1684167992160008700,3.3620087890625,-0.07582201063632965,-0.3549747169017792,0.025329042226076126
1684167992170026500,3.372026611328125,-0.025642462074756622,-0.18897029757499695,0.01283908262848854
1684167992180045600,3.382045654296875,0.00889821257442236,-0.06936585158109665,-0.021370358765125275
1684167992190063400,3.3920634765625,0.012713456526398659,-0.008499572984874249,-0.05558186024427414
1684167992200082400,3.40208251953125,-0.02849210426211357,-0.03685922548174858,-0.08786623924970627
1684167992210100700,3.412100830078125,-0.07637014240026474,-0.1124863475561142,-0.10277274996042252
1684167992220119600,3.42211962890625,-0.09503062069416046,-0.15312834084033966,-0.11113390326499939
1684167992230137600,3.4321376953125,-0.06915188580751419,-0.11765345185995102,-0.1231444925069809
1684167992240156700,3.44215673828125,-0.023836221545934677,-0.017974909394979477,-0.1246878132224083
1684167992250174500,3.452174560546875,0.011436814442276955,0.10090487450361252,-0.11074855923652649
1684167992260192500,3.462192626953125,0.02573772333562374,0.19940561056137085,-0.0694730281829834
1684167992270211600,3.472211669921875,0.02897772565484047,0.27316078543663025,-0.028132248669862747
1684167992280229600,3.482229736328125,0.027651548385620117,0.3239858150482178,0.010668552480638027
1684167992290248700,3.492248779296875,0.03309424966573715,0.3256407082080841,0.0433812253177166
1684167992300266500,3.5022666015625,0.04421301558613777,0.2761284410953522,0.05759765952825546
1684167992310285600,3.51228564453125,0.055058207362890244,0.18590696156024933,0.06267230957746506
1684167992320303600,3.5223037109375,0.05192071199417114,0.060337893664836884,0.05289966240525246
1684167992330322400,3.532322509765625,0.029126450419425964,-0.07555203139781952,0.01862531527876854
1684167992340340700,3.5423408203125,0.00016681593842804432,-0.19777286052703857,-0.028511855751276016
1684167992350359600,3.552359619140625,-0.02260507456958294,-0.29603123664855957,-0.07192777842283249
1684167992360377600,3.562377685546875,-0.03939284384250641,-0.3548181354999542,-0.09852849692106247
1684167992370396700,3.572396728515625,-0.042632315307855606,-0.36483320593833923,-0.09980521351099014
1684167992380414500,3.58241455078125,-0.03731676563620567,-0.3355460464954376,-0.07819702476263046
1684167992390433500,3.59243359375,-0.014144600369036198,-0.28269243240356445,-0.04354877397418022
1684167992400451600,3.60245166015625,-0.0017361337086185813,-0.2226938158273697,0.0014922048430889845
1684167992410470400,3.612470458984375,0.014879860915243626,-0.16498684883117676,0.04811936244368553
1684167992420488700,3.62248876953125,0.032527677714824677,-0.09750911593437195,0.09231635928153992
1684167992430507800,3.6325078125,0.04606905207037926,0.0058673410676419735,0.11937621235847473
1684167992440525600,3.642525634765625,0.0641900822520256,0.12206551432609558,0.13012000918388367
1684167992450544600,3.652544677734375,0.07726247608661652,0.22003282606601715,0.12229324132204056
1684167992460562400,3.6625625,0.08040039241313934,0.25541698932647705,0.10200733691453934
1684167992470580500,3.67258056640625,0.06711041927337646,0.24141648411750793,0.07272641360759735
1684167992480599600,3.682599609375,0.04437224939465523,0.2036396563053131,0.039164941757917404
1684167992490617600,3.69261767578125,0.02362862043082714,0.16350290179252625,0.006435227580368519
1684167992500636700,3.70263671875,0.008787845261394978,0.1343439817428589,-0.02124517224729061
1684167992510654700,3.71265478515625,-0.0000714256166247651,0.10419486463069916,-0.03928915038704872
1684167992520673500,3.722673583984375,-0.009137324057519436,0.06166866794228554,-0.03379761055111885
1684167992530691600,3.732691650390625,-0.018914321437478065,0.0012114527635276318,-0.01941494084894657
1684167992540710700,3.742710693359375,-0.024725088849663734,-0.07367878407239914,0.000564504531212151
1684167992550728400,3.752728515625,-0.026345357298851013,-0.15928450226783752,0.0029826548416167498
1684167992560747500,3.76274755859375,-0.02362670749425888,-0.22115458548069,-0.014349467121064663
1684167992570765600,3.772765625,-0.02597028762102127,-0.24241966009140015,-0.03248905763030052
1684167992580784600,3.78278466796875,-0.028690209612250328,-0.2488604635000229,-0.0544101744890213
1684167992590802700,3.792802734375,-0.03188040852546692,-0.23877933621406555,-0.07549015432596207
1684167992600821500,3.802821533203125,-0.03788679093122482,-0.2344997525215149,-0.09289047122001648
1684167992610839600,3.812839599609375,-0.04038377106189728,-0.2559549808502197,-0.08833593130111694
1684167992620859000,3.82285888671875,-0.02854176051914692,-0.32904598116874695,-0.07876452803611755
1684167992630876700,3.832876708984375,-0.004043075256049633,-0.4259546995162964,-0.06850523501634598
1684167992640895700,3.842895751953125,0.019665682688355446,-0.5035991072654724,-0.052759669721126556
1684167992650914000,3.8529140625,0.03064855933189392,-0.5182787179946899,-0.02233092486858368
1684167992660932900,3.862932861328125,0.014509492553770542,-0.4410190284252167,0.0373358316719532
1684167992670951000,3.872950927734375,-0.020713740959763527,-0.2604348659515381,0.10536707937717438
1684167992680970000,3.882969970703125,-0.03978608176112175,0.02243315987288952,0.1643550544977188
1684167992690987800,3.89298779296875,-0.033490899950265884,0.32768574357032776,0.19904778897762299
1684167992701005800,3.903005859375,-0.0012085273629054427,0.556524932384491,0.21509940922260284
1684167992711024600,3.913024658203125,0.03131399676203728,0.6720009446144104,0.2100399285554886
1684167992721043000,3.92304296875,0.06349876523017883,0.6951148509979248,0.19942381978034973
1684167992731062000,3.93306201171875,0.07941354811191559,0.6392406821250916,0.1853247880935669
1684167992741079800,3.943079833984375,0.06522586941719055,0.4629594087600708,0.18826255202293396
1684167992751099000,3.953098876953125,0.039063237607479095,0.1401110142469406,0.18749555945396423
1684167992761117000,3.963116943359375,0.026945801451802254,-0.1970731019973755,0.15234266221523285
1684167992771135700,3.9731357421875,0.01479246560484171,-0.36143675446510315,0.09234298020601273
1684167992781153800,3.98315380859375,0.010186228901147842,-0.2831685543060303,0.02640034258365631
1684167992791172900,3.9931728515625,0.01618819311261177,-0.044780462980270386,-0.017760727554559708
1684167992801191000,4.00319091796875,0.04820410534739494,0.21286287903785706,-0.01238181721419096
1684167992811210000,4.0132099609375,0.08521059155464172,0.4085429012775421,0.028008216992020607
1684167992821227800,4.023227783203125,0.11979776620864868,0.5336175560951233,0.0780462995171547
1684167992831246800,4.033246826171875,0.13033883273601532,0.5761056542396545,0.10283766686916351
1684167992841265000,4.043264892578125,0.10938890278339386,0.5323532223701477,0.08758685737848282
1684167992851283700,4.05328369140625,0.032805442810058594,0.4306812286376953,0.040822017937898636
1684167992861302000,4.063302001953125,-0.07568518072366714,0.29959842562675476,-0.009110708720982075
1684167992871321000,4.073321044921875,-0.17422427237033844,0.1503996104001999,-0.06538169831037521
1684167992881339000,4.0833388671875,-0.22689004242420197,0.01512555405497551,-0.11549462378025055
1684167992891358000,4.09335791015625,-0.2307012975215912,-0.12716421484947205,-0.16480836272239685
1684167992901375700,4.103375732421875,-0.20490427315235138,-0.2548167407512665,-0.1998981386423111
1684167992911394800,4.113394775390625,-0.17318975925445557,-0.3358469009399414,-0.2196769118309021
1684167992921412900,4.123412841796875,-0.15757273137569427,-0.34808093309402466,-0.22880296409130096
1684167992931431000,4.133430908203125,-0.14205582439899445,-0.3254648447036743,-0.23808994889259338
1684167992941450000,4.143449951171875,-0.12693601846694946,-0.308503657579422,-0.23191863298416138
1684167992951467800,4.1534677734375,-0.11971726268529892,-0.33509716391563416,-0.20971505343914032
1684167992961486800,4.16348681640625,-0.12220317125320435,-0.37488654255867004,-0.18376706540584564
1684167992971505000,4.1735048828125,-0.12033096700906754,-0.392226904630661,-0.1802109330892563
1684167992981523700,4.183523681640625,-0.1016659140586853,-0.40259191393852234,-0.18954706192016602
1684167992991541800,4.193541748046875,-0.07632593810558319,-0.433213472366333,-0.1838982254266739
1684167993001560800,4.203560791015625,-0.04903920367360115,-0.4845256805419922,-0.15408673882484436
1684167993011579000,4.213578857421875,-0.025419624522328377,-0.5088073015213013,-0.09659840911626816
1684167993021598000,4.223597900390625,-0.018627867102622986,-0.4377239942550659,-0.026661988347768784
1684167993031616000,4.233615966796875,-0.0075722867622971535,-0.26196253299713135,0.01771346665918827
1684167993041634800,4.243634765625,-0.003863363992422819,-0.013198504224419594,0.012426933273673058
1684167993051652900,4.25365283203125,-0.01362917572259903,0.23507869243621826,-0.03435362130403519
1684167993061672000,4.263671875,-0.02738160826265812,0.4176614582538605,-0.08812779933214188
1684167993071689700,4.273689697265625,-0.02299937792122364,0.5354815125465393,-0.12612365186214447
1684167993081708800,4.283708740234375,0.0017629258800297976,0.6268277764320374,-0.131415456533432
1684167993091726800,4.293726806640625,0.04769179970026016,0.6887094974517822,-0.08757396787405014
1684167993101746000,4.303745849609375,0.10122464597225189,0.6891272664070129,-0.009991575963795185
1684167993111765000,4.313764892578125,0.15936677157878876,0.6281920075416565,0.07580322027206421
1684167993121782800,4.32378271484375,0.20934271812438965,0.555860161781311,0.14677077531814575
1684167993131801900,4.3338017578125,0.22480370104312897,0.5037053227424622,0.19937726855278015
1684167993141820000,4.34381982421875,0.20502908527851105,0.4686177670955658,0.22037871181964874
1684167993151838700,4.353838623046875,0.15703120827674866,0.4207881987094879,0.19952642917633057
1684167993161856800,4.363856689453125,0.1006663367152214,0.3573533892631531,0.13717925548553467
1684167993171875800,4.373875732421875,0.040796343237161636,0.28566402196884155,0.04867415130138397
1684167993181894000,4.383893798828125,-0.01528119295835495,0.2269500195980072,-0.037512682378292084
1684167993191912000,4.393911865234375,-0.06629830598831177,0.15061023831367493,-0.09098416566848755
1684167993201930800,4.4039306640625,-0.09190019965171814,0.040770113468170166,-0.105715811252594
1684167993211948800,4.41394873046875,-0.09360968321561813,-0.08460591733455658,-0.10108137875795364
1684167993221968000,4.4239677734375,-0.08010374754667282,-0.20964287221431732,-0.11594891548156738
1684167993231986000,4.43398583984375,-0.064845971763134,-0.3495376706123352,-0.14498136937618256
1684167993242005000,4.4440048828125,-0.059466321021318436,-0.4895364046096802,-0.17067666351795197
1684167993252023000,4.45402294921875,-0.07079221308231354,-0.5921916365623474,-0.16868622601032257
1684167993262041900,4.464041748046875,-0.07687758654356003,-0.6151302456855774,-0.13647550344467163
1684167993272060000,4.474059814453125,-0.06826625019311905,-0.5467492938041687,-0.07777305692434311
1684167993282079000,4.484078857421875,-0.04376623034477234,-0.4026576578617096,-0.010979182086884975
1684167993292096800,4.4940966796875,-0.013804334215819836,-0.21685902774333954,0.05529038608074188
1684167993302115800,4.50411572265625,0.01274678111076355,-0.028343094512820244,0.09360586851835251
1684167993312134000,4.5141337890625,0.03237321227788925,0.12427494674921036,0.10126351565122604
1684167993322153000,4.524153076171875,0.032563671469688416,0.20708882808685303,0.0724116712808609
1684167993332171000,4.5341708984375,0.01579960435628891,0.18620565533638,0.011848989874124527
1684167993342189800,4.54418994140625,-0.010468914173543453,0.11354304850101471,-0.050312064588069916
1684167993352208000,4.554207763671875,-0.026211658492684364,0.04272399842739105,-0.09373756498098373
1684167993362227000,4.56422705078125,-0.031065339222550392,0.011676153168082237,-0.10053789615631104
1684167993372244700,4.57424462890625,-0.021049989387392998,0.02210136316716671,-0.058845046907663345
1684167993382263800,4.584263916015625,-0.00048044361756183207,0.04756217822432518,0.01705671288073063
1684167993392281900,4.59428173828125,0.02993924729526043,0.08749308437108994,0.09313390403985977
1684167993402301000,4.604301025390625,0.05832955613732338,0.11875009536743164,0.14369352161884308
1684167993412319000,4.614319091796875,0.0702141746878624,0.1250612586736679,0.14971652626991272
1684167993422336800,4.624336669921875,0.06443612277507782,0.07884884625673294,0.10456527769565582
1684167993432355800,4.63435595703125,0.02773989737033844,-0.017567439004778862,0.037427518516778946
1684167993442373600,4.64437353515625,-0.023698069155216217,-0.13753505051136017,-0.022196274250745773
1684167993452392700,4.654392822265625,-0.060867276042699814,-0.26407086849212646,-0.06043953448534012
1684167993462411000,4.664410888671875,-0.08201438188552856,-0.34611862897872925,-0.07267829030752182
1684167993472429800,4.674429931640625,-0.08547089993953705,-0.3831661343574524,-0.06609389185905457
1684167993482448000,4.68444775390625,-0.06815163046121597,-0.3803403973579407,-0.052528224885463715
1684167993492467000,4.694467041015625,-0.044346701353788376,-0.35238468647003174,-0.03449888899922371
1684167993502484700,4.704484619140625,-0.018373457714915276,-0.31226810812950134,-0.017350368201732635
1684167993512503800,4.71450390625,-0.011105957441031933,-0.2715896666049957,0.002742648357525468
1684167993522521900,4.72452197265625,-0.012251126579940319,-0.23442871868610382,0.016105128452181816
1684167993532540700,4.734540771484375,-0.014525732956826687,-0.21868011355400085,0.019157111644744873
1684167993542559000,4.74455908203125,-0.01748902164399624,-0.21511812508106232,0.004734160378575325
1684167993552578000,4.754578125,-0.022901363670825958,-0.19907498359680176,-0.009746777825057507
1684167993562595800,4.764595947265625,-0.028984101489186287,-0.15696634352207184,-0.021368689835071564
1684167993572615000,4.774614990234375,-0.02604876644909382,-0.1060166135430336,-0.022950606420636177
1684167993582632700,4.7846328125,-0.01681499369442463,-0.03913061320781708,-0.005463474430143833
1684167993592651800,4.79465185546875,0.006821624934673309,0.03798654302954674,0.026147713884711266
1684167993602670000,4.804670166015625,0.031154360622167587,0.11162645369768143,0.06387501209974289
1684167993612689000,4.81468896484375,0.05764029920101166,0.12403971701860428,0.0741199254989624
1684167993622707000,4.82470703125,0.0713999941945076,0.06258436292409897,0.051126766949892044
1684167993632725000,4.83472509765625,0.049479253590106964,-0.01094045303761959,0.01836189441382885
1684167993642744000,4.844744140625,0.0018255258910357952,-0.06130969151854515,-0.015803391113877296
1684167993652761900,4.854761962890625,-0.03621852770447731,-0.08689095079898834,-0.03279116377234459
1684167993662781000,4.864781005859375,-0.045962993055582047,-0.0876084417104721,-0.03545881807804108
1684167993672799000,4.874799072265625,-0.030068714171648026,-0.05867186188697815,-0.01959916204214096
1684167993682818000,4.884818115234375,-0.00415488425642252,-0.016478246077895164,0.005887006409466267
1684167993692836000,4.894836181640625,0.020385345444083214,-0.0006034094840288162,0.025214098393917084
1684167993702855000,4.90485498046875,0.035713326185941696,-0.0019236886873841286,0.023841790854930878
1684167993712873000,4.914873046875,0.030634410679340363,-0.017044316977262497,-0.004039641935378313
1684167993722892000,4.92489208984375,0.010277574881911278,-0.03880992531776428,-0.045960139483213425
1684167993732909800,4.934909912109375,-0.013191531412303448,-0.06418585777282715,-0.06861964613199234
1684167993742929000,4.944928955078125,-0.020237045362591743,-0.07644747197628021,-0.0715588927268982
1684167993752947000,4.954947021484375,-0.013664630241692066,-0.057198941707611084,-0.05255963280797005
1684167993762966000,4.964966064453125,-0.0021335547789931297,-0.017328068614006042,-0.021050529554486275
1684167993772984000,4.974984130859375,0.007229853421449661,0.03166531026363373,0.011744434013962746
1684167993783003000,4.9850029296875,0.01515386626124382,0.059772539883852005,0.03778858855366707
1684167993793021000,4.99502099609375,0.007882370613515377,0.06157204136252403,0.039745744317770004
1684167993803040000,5.0050400390625,0.010632128454744816,0.03196031600236893,0.019938785582780838
1684167993813057800,5.015057861328125,0.004399532452225685,-0.009176465682685375,-0.023526931181550026
1684167993823076900,5.025076904296875,-0.00471794418990612,-0.01504538394510746,-0.05891537293791771
1684167993833095000,5.035094970703125,-0.019734710454940796,0.01571252942085266,-0.06593865901231766
1684167993843114000,5.045114013671875,-0.018022308126091957,0.04991816356778145,-0.037829190492630005
1684167993853132000,5.055132080078125,-0.00010456018208060414,0.07073929160833359,0.008280513808131218
1684167993863149800,5.06514990234375,0.02528795786201954,0.07168649882078171,0.048573218286037445
1684167993873169000,5.0751689453125,0.035324614495038986,0.072291299700737,0.06986039876937866
1684167993883187000,5.08518701171875,0.02989608608186245,0.09511689841747284,0.06698872894048691
1684167993893205800,5.095205810546875,0.016033532097935677,0.12074317038059235,0.041627444326877594
1684167993903224000,5.10522412109375,0.013902446255087852,0.11285839974880219,0.021750764921307564
1684167993913243100,5.1152431640625,0.004094024654477835,0.09649033844470978,0.01429045107215643
1684167993923261000,5.125260986328125,-0.005975242238491774,0.09713493287563324,0.01846344769001007
1684167993933280000,5.135280029296875,-0.011120468378067017,0.10130864381790161,0.007207597140222788
1684167993943297800,5.1452978515625,-0.011477812193334103,0.09168661385774612,-0.009085390716791153
1684167993953316900,5.15531689453125,-0.011749986559152603,0.08811052143573761,-0.015488961711525917
1684167993963335000,5.1653349609375,-0.002511268248781562,0.09048662334680557,-0.019901784136891365
1684167993973354000,5.17535400390625,0.014685828238725662,0.07995381951332092,-0.01058072131127119
1684167993983372000,5.1853720703125,0.02903848886489868,0.04751085489988327,0.003620123490691185
1684167993993391000,5.19539111328125,0.03324947878718376,0.008666789159178734,0.02337704971432686
1684167994003409000,5.205408935546875,0.021228261291980743,-0.01710493676364422,0.02557007409632206
1684167994013428000,5.215427978515625,0.009196365252137184,-0.025620926171541214,0.016822123900055885
1684167994023445800,5.22544580078125,-0.0010714519303292036,-0.03739795833826065,0.0034956657327711582
1684167994033464800,5.23546484375,-0.002009949879720807,-0.06121966987848282,-0.0034597120247781277
1684167994043483100,5.245483154296875,0.005858078598976135,-0.07927504181861877,-0.00016696049715392292
1684167994053502000,5.255501953125,0.015661174431443214,-0.05562777444720268,0.0036996828857809305
1684167994063520000,5.26552001953125,0.013895014300942421,-0.00321393134072423,-0.0007200114196166396
1684167994073538000,5.2755380859375,0.0063108643516898155,0.04843408241868019,-0.012083719484508038
1684167994083556900,5.285556884765625,0.0015091943787410855,0.08524936437606812,-0.018101204186677933
1684167994093575000,5.295574951171875,0.002778989728540182,0.11850851774215698,-0.016741128638386726
1684167994103594000,5.305593994140625,0.007104839663952589,0.12492799758911133,0.0044969250448048115
1684167994113612000,5.315612060546875,0.02162705734372139,0.10931574553251266,0.02805418148636818
1684167994123631000,5.325631103515625,0.04278296232223511,0.053863417357206345,0.030194958671927452
1684167994133649000,5.33564892578125,0.049567900598049164,-0.020882459357380867,-0.0024711093865334988
1684167994143668000,5.34566796875,0.02079051360487938,-0.08464038372039795,-0.04243706166744232
1684167994153686000,5.35568603515625,-0.024786824360489845,-0.11459428817033768,-0.0769292563199997
1684167994163704800,5.365704833984375,-0.05616215988993645,-0.12411815673112869,-0.1033790335059166
1684167994173723000,5.375722900390625,-0.054279305040836334,-0.12768305838108063,-0.09489846229553223
1684167994183742000,5.385741943359375,-0.03317611664533615,-0.12336505949497223,-0.05816404148936272
1684167994193760000,5.395760009765625,-0.009738966822624207,-0.11387701332569122,-0.02028323896229267
1684167994203779000,5.405779052734375,0.006604843772947788,-0.10880555957555771,-0.009395631030201912
1684167994213796900,5.415796875,0.006065819878131151,-0.11925633996725082,-0.01944427192211151
1684167994223816000,5.42581591796875,-0.007928026840090752,-0.13441291451454163,-0.046300649642944336
1684167994233834000,5.435833984375,-0.024656672030687332,-0.15723221004009247,-0.07057537138462067
1684167994243852800,5.445852783203125,-0.034695591777563095,-0.17147010564804077,-0.07046394050121307
1684167994253870800,5.455870849609375,-0.020921191200613976,-0.16700159013271332,-0.04841909185051918
1684167994263890000,5.465889892578125,0.008506529033184052,-0.12062406539916992,-0.013810762204229832
1684167994273908000,5.475907958984375,0.04081520065665245,-0.014986850321292877,0.025325987488031387
1684167994283926000,5.485926025390625,0.06168114393949509,0.0990070253610611,0.05040698125958443
1684167994293944800,5.49594482421875,0.06970418244600296,0.1809713989496231,0.04580610617995262
1684167994303963000,5.505962890625,0.07068882137537003,0.22596809267997742,0.02406560257077217
1684167994313982000,5.51598193359375,0.06699555367231369,0.2381909340620041,-0.005233163014054298
1684167994324000000,5.526,0.07113826274871826,0.22256335616111755,-0.030509280040860176
1684167994334019000,5.53601904296875,0.06940080970525742,0.19144724309444427,-0.04052143171429634
1684167994344037000,5.546037109375,0.07116840779781342,0.14460967481136322,-0.04289780557155609
1684167994354056000,5.556055908203125,0.053484752774238586,0.07848844677209854,-0.04479850456118584
1684167994364074000,5.566073974609375,0.011854974552989006,0.0393511988222599,-0.04254790395498276
1684167994374093000,5.576093017578125,-0.04533401504158974,0.07178716361522675,-0.009505531750619411
1684167994384110800,5.58611083984375,-0.06457916647195816,0.12690189480781555,0.026003921404480934
1684167994394130000,5.5961298828125,-0.03580637276172638,0.14326141774654388,0.03896499425172806
1684167994404148000,5.60614794921875,0.017465928569436073,0.13223427534103394,0.0236517321318388
1684167994414167000,5.6161669921875,0.06685637682676315,0.1465868502855301,0.0007839659228920937
1684167994424185000,5.62618505859375,0.10111884027719498,0.1712322235107422,-0.020303744822740555
1684167994434204000,5.636203857421875,0.10921831429004669,0.14487598836421967,-0.029432261362671852
1684167994444222000,5.646221923828125,0.09115870296955109,0.078316330909729,-0.023935159668326378
1684167994454241000,5.656240966796875,0.05213593691587448,0.02864118479192257,-0.024172447621822357
1684167994464258800,5.6662587890625,0.005232758354395628,0.013439705595374107,-0.03785674646496773
1684167994474278000,5.67627783203125,-0.04367193579673767,0.02969270944595337,-0.05557049438357353
1684167994484296000,5.6862958984375,-0.08028961718082428,0.07142629474401474,-0.05808890610933304
1684167994494314000,5.69631396484375,-0.08949829638004303,0.1288677453994751,-0.02609342150390148
1684167994504333000,5.7063330078125,-0.063946932554245,0.1821204125881195,0.024399368092417717
1684167994514350800,5.716350830078125,-0.010806215927004814,0.22783462703227997,0.07446172833442688
1684167994524370000,5.726369873046875,0.047582145780324936,0.2545558512210846,0.09709250181913376
1684167994534388000,5.736387939453125,0.07768412679433823,0.24054893851280212,0.07811614871025085
1684167994544406800,5.74640673828125,0.06284697353839874,0.1897016167640686,0.03790551796555519
1684167994554425000,5.756425048828125,0.017057383432984352,0.12470424920320511,-0.009871591813862324
1684167994564444200,5.766444091796875,-0.038544293493032455,0.05622737854719162,-0.04484187811613083
1684167994574462000,5.7764619140625,-0.07191956043243408,0.0015915604308247566,-0.03996456786990166
1684167994584481000,5.78648095703125,-0.08031824976205826,-0.013478843495249748,0.004720257595181465
1684167994594498800,5.796498779296875,-0.0513923242688179,0.013340785168111324,0.08268110454082489
1684167994604518000,5.806517822265625,-0.0009589361725375056,0.05184447020292282,0.15004101395606995
1684167994614536000,5.816535888671875,0.038533613085746765,0.05628316104412079,0.1630372405052185
1684167994624555300,5.82655517578125,0.03159672021865845,0.013246092945337296,0.10868822038173676
1684167994634573300,5.8365732421875,-0.028880205005407333,-0.0829203873872757,-0.004062829539179802
1684167994644592400,5.84659228515625,-0.10975734889507294,-0.16007553040981293,-0.14008301496505737
1684167994654610200,5.856610107421875,-0.17150379717350006,-0.15707574784755707,-0.23888017237186432
1684167994664629200,5.866629150390625,-0.18222522735595703,-0.1057533472776413,-0.26103848218917847
1684167994674647300,5.876647216796875,-0.1300666779279709,-0.07971269637346268,-0.22009611129760742
1684167994684666000,5.886666015625,-0.038297075778245926,-0.08919648081064224,-0.1613001823425293
1684167994694684200,5.89668408203125,0.03603441268205643,-0.129071444272995,-0.11080051213502884
1684167994704703200,5.906703125,0.06290490925312042,-0.1880820393562317,-0.08032090216875076
1684167994714721300,5.91672119140625,0.03629354014992714,-0.23211342096328735,-0.06009472534060478
1684167994724739300,5.9267392578125,-0.01721978560090065,-0.21904391050338745,-0.044854093343019485
1684167994734758100,5.936758056640625,-0.0536251962184906,-0.15833981335163116,-0.035340748727321625
1684167994744776200,5.946776123046875,-0.05970276519656181,-0.057969577610492706,-0.02284216322004795
1684167994754795300,5.956795166015625,-0.0462103933095932,0.04153703898191452,0.00802973285317421
1684167994764813300,5.966813232421875,-0.01986975222826004,0.10650499910116196,0.06361467391252518
1684167994774832000,5.97683203125,0.016811829060316086,0.12473087757825851,0.1159050464630127
1684167994784850400,5.986850341796875,0.05141162499785423,0.12139474600553513,0.12917843461036682
1684167994794869200,5.996869140625,0.07400189340114594,0.12313192337751389,0.09577387571334839
1684167994804887300,6.00688720703125,0.06632906198501587,0.13587327301502228,0.022106047719717026
1684167994814906400,6.01690625,0.03333542123436928,0.14372694492340088,-0.05895764380693436
1684167994824924200,6.026924072265625,-0.003012431785464287,0.12539343535900116,-0.12462443113327026
1684167994834943200,6.036943115234375,-0.03632697835564613,0.09287677705287933,-0.144051656126976
1684167994844961300,6.046961181640625,-0.052249256521463394,0.059883713722229004,-0.10831667482852936
1684167994854980400,6.05698046875,-0.048405781388282776,0.03007788024842739,-0.0328216478228569
1684167994864998400,6.066998291015625,-0.012832924723625183,0.004452170338481665,0.06481173634529114
1684167994875017200,6.077017333984375,0.041612740606069565,-0.04044872522354126,0.12697231769561768
1684167994885035300,6.08703515625,0.07293172180652618,-0.11359741538763046,0.12232055515050888
1684167994895054300,6.097054443359375,0.042897388339042664,-0.21837203204631805,0.05624379590153694
1684167994905072000,6.107072021484375,-0.03159809112548828,-0.3348334729671478,-0.033608578145504
1684167994915091200,6.11709130859375,-0.10946732759475708,-0.3882138729095459,-0.11598946899175644
1684167994925109200,6.127109130859375,-0.15971781313419342,-0.3317544758319855,-0.15944266319274902
1684167994935127300,6.137127197265625,-0.1709161400794983,-0.23230911791324615,-0.15637922286987305
1684167994945146400,6.147146484375,-0.1278153955936432,-0.1639099270105362,-0.11957596242427826
1684167994955164200,6.1571640625,-0.06493709981441498,-0.10896170884370804,-0.07782106101512909
1684167994965183200,6.167183349609375,-0.01260377187281847,-0.05612792819738388,-0.03924018517136574
1684167994975201000,6.177200927734375,0.027148166671395302,-0.03506045788526535,-0.040318235754966736
1684167994985220000,6.18722021484375,0.04597942531108856,-0.04127151891589165,-0.08257724344730377
1684167994995238400,6.19723828125,0.02935943379998207,-0.04418821260333061,-0.13143238425254822
1684167995005257200,6.20725732421875,-0.0006309122545644641,-0.04287850484251976,-0.1798986941576004
1684167995015275300,6.217275146484375,-0.020985985174775124,-0.07187633216381073,-0.22124692797660828
1684167995025294300,6.22729443359375,-0.011779692955315113,-0.13220784068107605,-0.23284295201301575
1684167995035312000,6.23731201171875,0.01565139926970005,-0.17267723381519318,-0.19272401928901672
1684167995045331200,6.247331298828125,0.0674547627568245,-0.12508715689182281,-0.10650383681058884
1684167995055349200,6.257349365234375,0.13071230053901672,0.022110816091299057,-0.011122987605631351
1684167995065368000,6.2673681640625,0.18848061561584473,0.22224006056785583,0.06149906665086746
1684167995075386400,6.277386474609375,0.21525365114212036,0.3854500353336334,0.06375396251678467
1684167995085405400,6.287405517578125,0.19832707941532135,0.4265141189098358,0.025691302493214607
1684167995095423200,6.29742333984375,0.1427524983882904,0.29556915163993835,-0.032032717019319534
1684167995105442300,6.3074423828125,0.06664284318685532,0.022314416244626045,-0.07410629093647003
1684167995115460000,6.317460205078125,-0.016232863068580627,-0.3116030991077423,-0.08933717757463455
1684167995125479200,6.327479248046875,-0.08928009867668152,-0.5992913842201233,-0.08093076199293137
1684167995135497200,6.337497314453125,-0.13802526891231537,-0.7650087475776672,-0.0541745200753212
1684167995145516000,6.34751611328125,-0.15139740705490112,-0.7710041403770447,-0.017268255352973938
1684167995155534300,6.357534423828125,-0.14319567382335663,-0.6273851990699768,0.018720638006925583
1684167995165552000,6.36755224609375,-0.1159491017460823,-0.4077831506729126,0.044620782136917114
1684167995175571200,6.3775712890625,-0.09026477485895157,-0.1792285144329071,0.06444482505321503
1684167995185589200,6.38758935546875,-0.05800888314843178,0.022783206775784492,0.08596179634332657
1684167995195608000,6.397608154296875,-0.01630803942680359,0.17956404387950897,0.09367910027503967
1684167995205626400,6.40762646484375,0.02069445140659809,0.2859671711921692,0.08760283142328262
1684167995215645400,6.4176455078125,0.0459180511534214,0.3475485146045685,0.0746082067489624
1684167995225663200,6.427663330078125,0.04672178998589516,0.38320478796958923,0.06165565922856331
1684167995235682300,6.437682373046875,0.041358985006809235,0.39047306776046753,0.05770246312022209
1684167995245700400,6.447700439453125,0.04749003425240517,0.3662721812725067,0.050459589809179306
1684167995255719200,6.45771923828125,0.06336168199777603,0.33175548911094666,0.03851903975009918
1684167995265737200,6.4677373046875,0.07929336279630661,0.2744803726673126,0.011091054417192936
1684167995275756300,6.47775634765625,0.07113077491521835,0.18852713704109192,-0.027704011648893356
1684167995285774300,6.4877744140625,0.02618555538356304,0.07359746843576431,-0.09217619150876999
1684167995295793400,6.49779345703125,-0.03915217146277428,-0.05902795493602753,-0.18048208951950073
1684167995305811200,6.507811279296875,-0.08744170516729355,-0.19062189757823944,-0.26478111743927
1684167995315830300,6.517830322265625,-0.12346308678388596,-0.3065894842147827,-0.30757197737693787
1684167995325848300,6.527848388671875,-0.13834333419799805,-0.39015623927116394,-0.2965231239795685
1684167995335867100,6.5378671875,-0.12370419502258301,-0.4484850764274597,-0.24247267842292786
1684167995345885200,6.54788525390625,-0.08284495025873184,-0.5029852986335754,-0.1770058125257492
1684167995355904300,6.557904296875,-0.03616639971733093,-0.5348486304283142,-0.13083192706108093
1684167995365922300,6.56792236328125,-0.0013605505228042603,-0.5378584861755371,-0.10452836006879807
1684167995375940400,6.5779404296875,0.017509277909994125,-0.5030784010887146,-0.09403817355632782
1684167995385959200,6.587959228515625,0.013070432469248772,-0.4338962733745575,-0.09408798813819885
1684167995395977200,6.597977294921875,-0.0053447941318154335,-0.35643714666366577,-0.0913396030664444
1684167995405996300,6.607996337890625,-0.017372850328683853,-0.28133028745651245,-0.07849040627479553
1684167995416014000,6.61801416015625,-0.012677430175244808,-0.20454733073711395,-0.04681290313601494
1684167995426033200,6.628033203125,-0.001583955716341734,-0.1100560650229454,0.014071894809603691
1684167995436051200,6.63805126953125,0.01648079976439476,-0.018536003306508064,0.08362593501806259
1684167995446070300,6.6480703125,0.041548825800418854,0.04092762619256973,0.13671256601810455
1684167995456088300,6.65808837890625,0.05360442399978638,0.06711661070585251,0.15587426722049713
1684167995466107100,6.668107177734375,0.04703478142619133,0.10624819248914719,0.1393221765756607
1684167995476125200,6.678125244140625,0.023796571418642998,0.2007581740617752,0.09720614552497864
1684167995486144300,6.688144287109375,0.002880631247535348,0.34613779187202454,0.061184175312519073
1684167995496162300,6.698162353515625,-0.00340336374938488,0.4841305613517761,0.03798724338412285
1684167995506181000,6.70818115234375,0.013627453707158566,0.5391062498092651,0.03421220928430557
1684167995516199400,6.718199462890625,0.03954853117465973,0.48452556133270264,0.057327646762132645
1684167995526218200,6.72821826171875,0.056956999003887177,0.34566470980644226,0.10551401972770691
1684167995536236300,6.738236328125,0.05505416914820671,0.1959441751241684,0.1551225781440735
1684167995546255400,6.74825537109375,0.0447523407638073,0.07654846459627151,0.165726900100708
1684167995556273200,6.758273193359375,0.019428875297307968,0.007853293791413307,0.1315300464630127
1684167995566292200,6.768292236328125,-0.016425209119915962,-0.042524684220552444,0.06204041466116905
1684167995576310300,6.778310302734375,-0.05318402498960495,-0.10509804636240005,-0.01153074111789465
1684167995586328300,6.788328369140625,-0.07429272681474686,-0.17796297371387482,-0.05877171829342842
1684167995596347400,6.798347412109375,-0.07774978131055832,-0.21430286765098572,-0.07712755352258682
1684167995606365200,6.808365234375,-0.06606357544660568,-0.1967494636774063,-0.06541190296411514
1684167995616383500,6.818383544921875,-0.0342814140021801,-0.15227173268795013,-0.036183446645736694
1684167995626401500,6.828401611328125,0.0006087457295507193,-0.1253589689731598,-0.004227839410305023
1684167995636420600,6.838420654296875,0.02568613551557064,-0.14119385182857513,0.014268080703914165
1684167995646438700,6.848438720703125,0.02712278999388218,-0.16529987752437592,0.01108649093657732
1684167995656457700,6.858457763671875,0.01762728951871395,-0.17335860431194305,-0.020544404163956642
1684167995666475500,6.8684755859375,0.009162199683487415,-0.14963653683662415,-0.0702708438038826
1684167995676494600,6.87849462890625,0.006198368035256863,-0.09050238132476807,-0.12880367040634155
1684167995686512600,6.8885126953125,0.00464473245665431,-0.011866450309753418,-0.15796105563640594
1684167995696531500,6.898531494140625,0.013364721089601517,0.05099054425954819,-0.16011714935302734
1684167995706549800,6.9085498046875,0.038995739072561264,0.04892795532941818,-0.1331220418214798
1684167995716568800,6.91856884765625,0.07954263687133789,-0.03080681711435318,-0.09450247883796692
1684167995726586600,6.928586669921875,0.11102689802646637,-0.1663368046283722,-0.05083971098065376
1684167995736605700,6.938605712890625,0.11634763330221176,-0.303459495306015,0.0004178857780061662
1684167995746623500,6.94862353515625,0.07710099220275879,-0.39457035064697266,0.05330352485179901
1684167995756642600,6.958642578125,0.007387425750494003,-0.4068451225757599,0.09320593625307083
1684167995766660600,6.96866064453125,-0.05826296657323837,-0.3349432647228241,0.10944756120443344
1684167995776679400,6.978679443359375,-0.10286638140678406,-0.20756612718105316,0.09914299100637436
1684167995786697700,6.98869775390625,-0.10298530012369156,-0.08751225471496582,0.07571739703416824
1684167995796715500,6.998715576171875,-0.08144538849592209,-0.03516143560409546,0.0442524179816246
1684167995806734600,7.008734619140625,-0.057999130338430405,-0.07065953314304352,0.025524234399199486
1684167995816752600,7.018752685546875,-0.04499091953039169,-0.13055428862571716,0.03257175534963608
1684167995826771500,7.028771484375,-0.034764811396598816,-0.1443152278661728,0.06165033206343651
1684167995836789500,7.03878955078125,-0.007249298505485058,-0.05214642733335495,0.07830414175987244
1684167995846808600,7.04880859375,0.02737838588654995,0.11941847950220108,0.08948681503534317
1684167995856826600,7.05882666015625,0.05109943076968193,0.3414182662963867,0.1023717150092125
1684167995866845700,7.068845703125,0.06437642127275467,0.5616424083709717,0.1290173977613449
1684167995876863700,7.07886376953125,0.0711674764752388,0.7174892425537109,0.1693539023399353
1684167995886882600,7.088882568359375,0.08436980098485947,0.7652634978294373,0.1962818056344986
1684167995896900600,7.098900634765625,0.10965678095817566,0.7044078707695007,0.19519150257110596
1684167995906919700,7.108919677734375,0.12040354311466217,0.5651308298110962,0.16048577427864075
1684167995916937500,7.1189375,0.09554639458656311,0.37151554226875305,0.11131024360656738
1684167995926956500,7.12895654296875,0.0328846238553524,0.15093977749347687,0.044479407370090485
1684167995936974600,7.138974609375,-0.04241758584976196,-0.037183258682489395,-0.04338973015546799
1684167995946993700,7.14899365234375,-0.09782679378986359,-0.17273230850696564,-0.1366698145866394
1684167995957011700,7.15901171875,-0.12566640973091125,-0.27025115489959717,-0.21230332553386688
1684167995967030500,7.169030517578125,-0.13364319503307343,-0.3305546045303345,-0.2388833910226822
1684167995977048600,7.179048583984375,-0.1260707527399063,-0.3341951370239258,-0.20929834246635437
1684167995987067600,7.189067626953125,-0.10009036213159561,-0.29530230164527893,-0.14458847045898438
1684167995997085700,7.199085693359375,-0.05313670635223389,-0.24172772467136383,-0.0790957435965538
1684167996007103700,7.209103759765625,0.005075288470834494,-0.20058169960975647,-0.02683832496404648
1684167996017122600,7.21912255859375,0.04512443393468857,-0.1723702996969223,0.007972653023898602
1684167996027140600,7.229140625,0.05681368336081505,-0.154593825340271,0.029689451679587364
1684167996037159700,7.23915966796875,0.042473092675209045,-0.14999507367610931,0.03398992493748665
1684167996047177500,7.249177490234375,0.020349470898509026,-0.14820440113544464,0.010539158247411251
1684167996057196500,7.259196533203125,-0.002102841390296817,-0.13304275274276733,-0.0335816964507103
1684167996067214800,7.26921484375,-0.023058200255036354,-0.08489067852497101,-0.08399632573127747
1684167996077233700,7.279233642578125,-0.04673609882593155,0.00700675742700696,-0.11087694019079208
1684167996087251700,7.289251708984375,-0.04668392613530159,0.10745138674974442,-0.08861203491687775
1684167996097270800,7.299270751953125,-0.011819418519735336,0.18060949444770813,-0.030472828075289726
1684167996107288600,7.30928857421875,0.03377094864845276,0.21879413723945618,0.04455362260341644
1684167996117307600,7.3193076171875,0.06562581658363342,0.248432457447052,0.11106819659471512
1684167996127325400,7.329325439453125,0.06779018044471741,0.2764931321144104,0.14219355583190918
1684167996137344500,7.339344482421875,0.04560285434126854,0.3041737675666809,0.1412912756204605
1684167996147362800,7.34936279296875,0.016672194004058838,0.31561514735221863,0.11057199537754059
1684167996157381600,7.359381591796875,-0.006084518041461706,0.29571786522865295,0.0708908960223198
1684167996167399700,7.369399658203125,-0.02069900743663311,0.2391921877861023,0.038623008877038956
1684167996177418800,7.379418701171875,-0.025423722341656685,0.16868552565574646,0.01597069390118122
1684167996187436500,7.3894365234375,-0.021994078531861305,0.1004805937409401,0.010609661228954792
1684167996197455600,7.39945556640625,-0.013938814401626587,0.052897095680236816,0.008526536636054516
1684167996207473400,7.409473388671875,-0.007350008934736252,0.016381267458200455,0.004435477778315544
1684167996217492500,7.419492431640625,0.0011055275099352002,-0.020139725878834724,0.0010633831843733788
1684167996227510800,7.4295107421875,0.001072392798960209,-0.06394035369157791,0.006299175322055817
1684167996237528600,7.439528564453125,-0.016120174899697304,-0.10474583506584167,0.003330549690872431
1684167996247547600,7.449547607421875,-0.025253942236304283,-0.15070168673992157,-0.00789186917245388
1684167996257565400,7.4595654296875,-0.03322611376643181,-0.18917743861675262,-0.023250052705407143
1684167996267584500,7.46958447265625,-0.04006979241967201,-0.2084023803472519,-0.043165456503629684
1684167996277602600,7.4796025390625,-0.04799456149339676,-0.19169025123119354,-0.06643935292959213
1684167996287621400,7.489621337890625,-0.045502856373786926,-0.1539977639913559,-0.07677857577800751
1684167996297639700,7.4996396484375,-0.032743118703365326,-0.10678737610578537,-0.06976088136434555
1684167996307658800,7.50965869140625,-0.010821808129549026,-0.07143367826938629,-0.042211972177028656
1684167996317676500,7.519676513671875,0.013820420950651169,-0.060687560588121414,-0.004542358685284853
1684167996327695600,7.529695556640625,0.029726330190896988,-0.05597050115466118,0.029812881723046303
1684167996337713700,7.539713623046875,0.029305551201105118,-0.02927391044795513,0.047391608357429504
1684167996347732500,7.549732421875,0.015120911411941051,0.04105896130204201,0.04643874987959862
1684167996357750500,7.55975048828125,0.0010421100305393338,0.1233074888586998,0.02616836130619049
1684167996367769600,7.56976953125,-0.0032487751450389624,0.18920528888702393,0.010447191074490547
1684167996377787600,7.57978759765625,-0.005656006280332804,0.24225066602230072,-0.000409185653552413
1684167996387806700,7.589806640625,-0.0030820269603282213,0.2843301594257355,0.005919391289353371
1684167996397824500,7.599824462890625,0.009931243024766445,0.3223952353000641,0.014811952598392963
1684167996407843600,7.609843505859375,0.02197890356183052,0.3408767879009247,0.01900506392121315
1684167996417861600,7.619861572265625,0.03808223828673363,0.32711514830589294,0.028730662539601326
1684167996427879700,7.629879638671875,0.0478644073009491,0.2945784032344818,0.0406821146607399
1684167996437898800,7.639898681640625,0.05089668557047844,0.24738770723342896,0.044866472482681274
1684167996447916500,7.64991650390625,0.04108653962612152,0.19854868948459625,0.03869010880589485
1684167996457935600,7.659935546875,0.023373855277895927,0.14140231907367706,0.022357739508152008
1684167996467953700,7.66995361328125,0.0008948032045736909,0.06552412360906601,-0.017135009169578552
1684167996477972500,7.679972412109375,-0.01966346800327301,-0.01774306409060955,-0.07375220954418182
1684167996487990500,7.689990478515625,-0.03338281065225601,-0.06923067569732666,-0.1104917973279953
1684167996498009600,7.700009521484375,-0.03940075635910034,-0.0894336849451065,-0.12653174996376038
1684167996508027600,7.710027587890625,-0.038102466613054276,-0.11166468262672424,-0.1252012401819229
1684167996518046700,7.720046630859375,-0.026262318715453148,-0.14209184050559998,-0.10474895685911179
1684167996528064800,7.730064697265625,-0.013888481073081493,-0.15451602637767792,-0.07155897468328476
1684167996538083600,7.74008349609375,-0.005812445189803839,-0.1506589651107788,-0.03930969536304474
1684167996548101600,7.7501015625,0.0003641998046077788,-0.1498628854751587,-0.013439126312732697
1684167996558120700,7.76012060546875,0.0013415799476206303,-0.13576331734657288,-0.007064051926136017
1684167996568138500,7.770138427734375,-0.004116716329008341,-0.11040089279413223,-0.008557246997952461
1684167996578157600,7.780157470703125,-0.010325876995921135,-0.062315650284290314,-0.01763409748673439
1684167996588175600,7.790175537109375,-0.011303006671369076,-0.005645654164254665,-0.01615496538579464
1684167996598194700,7.800194580078125,-0.004391837865114212,0.04633099585771561,0.0023846300318837166
1684167996608212700,7.810212646484375,0.018655648455023766,0.07365000247955322,0.03171106055378914
1684167996618232300,7.820232421875,0.04028690606355667,0.09979984909296036,0.05941645801067352
1684167996628250400,7.83025048828125,0.054252225905656815,0.13181640207767487,0.07608294486999512
1684167996638268400,7.840268310546875,0.05133872479200363,0.1572732925415039,0.0737723857164383
1684167996648287200,7.850287353515625,0.03383932635188103,0.16041214764118195,0.05850677192211151
1684167996658305300,7.86030517578125,0.009011207148432732,0.1583460569381714,0.04779180884361267
1684167996668324400,7.870324462890625,-0.004647621884942055,0.1672639101743698,0.042815763503313065
1684167996678342400,7.88034228515625,-0.0018600913463160396,0.19621513783931732,0.04163145646452904
1684167996688361500,7.890361572265625,0.01369703933596611,0.21899449825286865,0.034823279827833176
1684167996698379300,7.900379150390625,0.04021626338362694,0.20784597098827362,0.032170239835977554
1684167996708398300,7.9103984375,0.05376575142145157,0.16222351789474487,0.0356714092195034
1684167996718416400,7.92041650390625,0.06634493172168732,0.07662152498960495,0.025861922651529312
1684167996728434400,7.930434326171875,0.06719101965427399,-0.02926015853881836,0.0035951631143689156
1684167996738453500,7.94045361328125,0.05844440311193466,-0.1473119556903839,-0.041948352009058
1684167996748471300,7.95047119140625,0.04703791067004204,-0.22806179523468018,-0.09189794957637787
1684167996758490400,7.960490478515625,0.03303713724017143,-0.24903604388237,-0.12577389180660248
1684167996768508400,7.97050830078125,0.023334253579378128,-0.21662306785583496,-0.10406605154275894
1684167996778527200,7.98052734375,0.009516444057226181,-0.13217049837112427,-0.028097787871956825
1684167996788545300,7.990545166015625,0.010889366269111633,0.0026738476008176804,0.060822658240795135
1684167996798564400,8.000564453125,0.02340063266456127,0.15715822577476501,0.10895077884197235
1684167996808582400,8.01058251953125,0.036632515490055084,0.2779879570007324,0.08782359212636948
1684167996818600400,8.020600341796875,0.03129260987043381,0.3466394543647766,0.022428875789046288
1684167996828619500,8.03061962890625,0.0030506320763379335,0.34463512897491455,-0.03596409037709236
1684167996838637300,8.04063720703125,-0.035220593214035034,0.2726653516292572,-0.05440967530012131
1684167996848656400,8.050656494140625,-0.049871206283569336,0.13338898122310638,-0.03116917610168457
1684167996858674200,8.060674072265625,-0.03640732914209366,-0.019460760056972504,-0.0024523097090423107
1684167996868693200,8.070693359375,-0.01118661742657423,-0.15378664433956146,0.002594416495412588
1684167996878711600,8.080711669921875,-0.008340231142938137,-0.25233638286590576,-0.01806825026869774
1684167996888730400,8.09073046875,-0.028259320184588432,-0.3136035203933716,-0.05125958099961281
1684167996898748400,8.10074853515625,-0.05158514901995659,-0.33871713280677795,-0.06485369056463242
1684167996908767500,8.110767578125,-0.05645742639899254,-0.3261839747428894,-0.06921186298131943
1684167996918785300,8.120785400390625,-0.042182084172964096,-0.27399373054504395,-0.06199602782726288
1684167996928804400,8.130804443359375,-0.02003120817244053,-0.18651773035526276,-0.044201210141181946
1684167996938822100,8.140822265625,-0.006853354163467884,-0.07731880992650986,-0.01588382013142109
1684167996948841200,8.15084130859375,0.007152820471674204,0.02526075206696987,0.00666717067360878
1684167996958859500,8.160859619140625,0.013128154911100864,0.08605220168828964,0.02314761094748974
1684167996968878300,8.17087841796875,0.011305244639515877,0.11381374299526215,0.035546932369470596
1684167996978896400,8.180896484375,0.010550239123404026,0.10050086677074432,0.03745535388588905
1684167996988915500,8.19091552734375,0.018991602584719658,0.053717732429504395,0.033145010471343994
1684167996998933200,8.200933349609375,0.021750638261437416,0.025755608454346657,0.019957304000854492
1684167997008951600,8.21095166015625,0.017065096646547318,0.033702168613672256,0.006582553498446941
1684167997018970400,8.220970458984375,0.009155241772532463,0.0674942210316658,-0.0012178454780951142
1684167997028988400,8.230988525390625,0.011067812331020832,0.10538259148597717,0.00845424085855484
1684167997039007500,8.241007568359375,0.024395601823925972,0.13488829135894775,0.028157370164990425
1684167997049025300,8.251025390625,0.035406775772571564,0.14913718402385712,0.05651652067899704
1684167997059044400,8.26104443359375,0.046721749007701874,0.12618152797222137,0.07326514273881912
1684167997069062400,8.2710625,0.04530034959316254,0.08195875585079193,0.06448555737733841
1684167997079081200,8.281081298828125,0.02702467516064644,0.024959661066532135,0.03130283206701279
1684167997089099500,8.291099609375,-0.0053062462247908115,-0.027783289551734924,-0.01763896644115448
1684167997099119400,8.301119384765625,-0.03815021365880966,-0.06903219223022461,-0.05819438397884369
1684167997109137400,8.311137451171875,-0.05206906795501709,-0.1090383529663086,-0.08318200707435608
1684167997119156500,8.321156494140626,-0.03988217934966087,-0.13812512159347534,-0.08228372037410736
1684167997129174500,8.331174560546875,-0.017328649759292603,-0.1444437950849533,-0.07160552591085434
1684167997139193300,8.341193359375,-0.007723427377641201,-0.13270404934883118,-0.05309629440307617
1684167997149211400,8.35121142578125,-0.010090435855090618,-0.10459065437316895,-0.03375142812728882
1684167997159230500,8.36123046875,-0.012483285740017891,-0.10031548142433167,-0.018159953877329826
1684167997169248300,8.371248291015625,-0.016389256343245506,-0.11879947781562805,-0.010396501049399376
1684167997179267300,8.381267333984376,-0.01960182934999466,-0.14661407470703125,-0.015751052647829056
1684167997189285400,8.391285400390625,-0.02930658683180809,-0.17282578349113464,-0.021939227357506752
1684167997199304400,8.401304443359376,-0.04745576158165932,-0.18102939426898956,-0.019049430266022682
1684167997209322500,8.411322509765625,-0.05852600187063217,-0.17454087734222412,-0.0029540127143263817
1684167997219340300,8.42134033203125,-0.056026890873909,-0.1402372270822525,0.01107924897223711
1684167997229359400,8.431359375,-0.04187164455652237,-0.08299069851636887,0.025866378098726273
1684167997239377200,8.441377197265625,-0.03213353082537651,-0.0003413618542253971,0.04570133611559868
1684167997249396200,8.451396240234375,-0.017295189201831818,0.07436936348676682,0.07290332764387131
1684167997259414500,8.46141455078125,0.001928041921928525,0.12849384546279907,0.08077509701251984
1684167997269433300,8.471433349609375,0.017076170071959496,0.14773111045360565,0.07088353484869003
1684167997279451400,8.481451416015625,0.016574963927268982,0.14160610735416412,0.04425804316997528
1684167997289470500,8.491470458984375,-0.0019292128272354603,0.13091565668582916,0.02391841821372509
1684167997299488300,8.50148828125,-0.015404274687170982,0.1271779090166092,0.023758094757795334
1684167997309507300,8.51150732421875,-0.010430633090436459,0.12044257670640945,0.04219581559300423
1684167997319525400,8.521525390625,0.009766780771315098,0.10815183073282242,0.067713163793087
1684167997329544200,8.531544189453125,0.03714510798454285,0.09033345431089401,0.10166862607002258
1684167997339562500,8.5415625,0.04616976156830788,0.06410291790962219,0.11687847226858139
1684167997349581600,8.55158154296875,0.03394923731684685,0.020393062382936478,0.10389621555805206
1684167997359599400,8.561599365234375,0.0030413884669542313,-0.046835243701934814,0.06265370547771454
1684167997369618400,8.571618408203125,-0.031240204349160194,-0.11612801253795624,0.0008681390900164843
1684167997379636200,8.58163623046875,-0.05280861258506775,-0.15163859724998474,-0.039506714791059494
1684167997389655300,8.5916552734375,-0.06050901487469673,-0.14001984894275665,-0.05288366973400116
1684167997399673300,8.60167333984375,-0.0501629002392292,-0.0924571305513382,-0.02707124501466751
1684167997409692200,8.611692138671875,-0.024751292541623116,-0.04105067625641823,0.02288253791630268
1684167997419710500,8.62171044921875,-0.004187693819403648,-0.014889111742377281,0.061043769121170044
1684167997429728300,8.631728271484375,0.0042466334998607635,0.0003992361016571522,0.07439206540584564
1684167997439747300,8.641747314453125,-0.0018400209955871105,0.013160837814211845,0.05783013626933098
1684167997449765400,8.651765380859375,-0.020722443237900734,0.03156096115708351,0.03396594151854515
1684167997459784200,8.6617841796875,-0.04644059017300606,0.05971137061715126,0.02185574732720852
1684167997469802500,8.671802490234375,-0.055918220430612564,0.07933243364095688,0.02235233783721924
1684167997479821600,8.681821533203125,-0.04783366248011589,0.09085246920585632,0.04271060600876808
1684167997489839400,8.69183935546875,-0.021371489390730858,0.09907718747854233,0.07149802893400192
1684167997499858400,8.7018583984375,0.002343161264434457,0.10496916621923447,0.0889878123998642
1684167997509876200,8.711876220703125,0.020509447902441025,0.11665210872888565,0.09566056728363037
1684167997519895300,8.721895263671875,0.0157834030687809,0.14753173291683197,0.09002798050642014
1684167997529913300,8.731913330078125,0.002658915240317583,0.1892755925655365,0.07549969106912613
1684167997539932200,8.74193212890625,-0.002629323862493038,0.21706807613372803,0.0636422336101532
1684167997549950500,8.751950439453125,-0.0008607525378465652,0.2193158119916916,0.06335051357746124
1684167997559969500,8.761969482421875,0.012458515353500843,0.21331411600112915,0.0681343525648117
1684167997569987300,8.7719873046875,0.02969525009393692,0.21687081456184387,0.08378996700048447
1684167997580006400,8.78200634765625,0.03847675397992134,0.2217361330986023,0.10170692205429077
1684167997590024400,8.7920244140625,0.03742948919534683,0.22657601535320282,0.12152697890996933
1684167997600043300,8.802043212890625,0.027833322063088417,0.22758455574512482,0.13833099603652954
1684167997610061300,8.812061279296875,0.015619918704032898,0.21139056980609894,0.14214296638965607
1684167997620079900,8.822079833984375,-0.0035042401868849993,0.17493189871311188,0.11707355082035065
1684167997630097700,8.83209765625,-0.018068715929985046,0.12322594225406647,0.08021774142980576
1684167997640116700,8.84211669921875,-0.033948346972465515,0.050271037966012955,0.04237927868962288
1684167997650134800,8.852134765625,-0.05224602296948433,-0.02225860394537449,0.022201495245099068
1684167997660152600,8.862152587890625,-0.06704200804233551,-0.06362521648406982,0.01787598989903927
1684167997670171600,8.872171630859375,-0.06433463841676712,-0.07546722888946533,0.01397792063653469
1684167997680189700,8.882189697265625,-0.053976546972990036,-0.07270952314138412,0.017617663368582726
1684167997690208800,8.892208740234375,-0.04742346331477165,-0.05095081776380539,0.015114274807274342
1684167997700226800,8.902226806640625,-0.038050998002290726,-0.028281191363930702,0.012072677724063396
1684167997710245600,8.91224560546875,-0.03438987582921982,-0.010288418270647526,0.010654153302311897
1684167997720263700,8.922263671875,-0.0326596200466156,-0.00033485377207398415,0.013759665191173553
1684167997730282800,8.93228271484375,-0.038745902478694916,0.021792694926261902,0.02934533730149269
1684167997740300500,8.942300537109375,-0.042166467756032944,0.05522602051496506,0.06629057228565216
1684167997750319600,8.952319580078125,-0.029889773577451706,0.07564738392829895,0.09793154895305634
1684167997760337700,8.962337646484375,-0.0056643299758434296,0.07185477018356323,0.11899422109127045
1684167997770356700,8.972356689453125,0.011516787111759186,0.06174327805638313,0.11312701553106308
1684167997780374800,8.982374755859375,0.010121290571987629,0.04811748489737511,0.0937756896018982
1684167997790393600,8.9923935546875,-0.00948676560074091,0.03699053078889847,0.07341528683900833
1684167997800411600,9.00241162109375,-0.026771211996674538,0.015025043860077858,0.04843857139348984
1684167997810430700,9.0124306640625,-0.02966814488172531,-0.013154424726963043,0.025358781218528748
1684167997820448500,9.022448486328125,-0.029254822060465813,-0.02245151996612549,0.01360758300870657
1684167997830467600,9.032467529296875,-0.024687649682164192,0.005418546963483095,0.019402392208576202
1684167997840486000,9.04248583984375,-0.018914716318249702,0.0528545044362545,0.030262762680649757
1684167997850504700,9.052504638671875,-0.011807599104940891,0.0873372033238411,0.04384166747331619
1684167997860522800,9.062522705078125,-0.004615732468664646,0.08101672679185867,0.04870433360338211
1684167997870541800,9.072541748046875,0.001916469307616353,0.0314001701772213,0.037846360355615616
1684167997880559600,9.0825595703125,-0.0066519854590296745,-0.020189251750707626,0.008874629624187946
1684167997890578000,9.092577880859375,-0.021502705290913582,-0.036195751279592514,-0.0188429094851017
1684167997900596700,9.1025966796875,-0.04024336859583855,-0.02683873474597931,-0.024102387949824333
1684167997910614800,9.11261474609375,-0.03732892870903015,-0.0027197077870368958,-0.00572036299854517
1684167997920633900,9.1226337890625,-0.018328072503209114,0.021045276895165443,0.013366779312491417
1684167997930651600,9.132651611328125,0.007645393256098032,0.048441022634506226,0.029134947806596756
1684167997940670700,9.142670654296875,0.027930691838264465,0.07949454337358475,0.03313900902867317
1684167997950688500,9.1526884765625,0.024561062455177307,0.07876396179199219,0.022248223423957825
1684167997960707600,9.16270751953125,0.009486771188676357,0.04851817339658737,-0.001118616433814168
1684167997970726000,9.172725830078125,-0.019312584772706032,-0.024280749261379242,-0.02134484425187111
1684167997980744700,9.18274462890625,-0.05126519128680229,-0.10110495984554291,-0.0330268032848835
1684167997990762800,9.1927626953125,-0.08033552765846252,-0.12499689310789108,-0.02429797314107418
1684167998000781800,9.20278173828125,-0.09065926820039749,-0.10069767385721207,-0.009976822882890701
1684167998010799600,9.212799560546875,-0.07641354203224182,-0.04812898114323616,0.00114697206299752
1684167998020818700,9.222818603515625,-0.041224926710128784,-0.00014547863975167274,0.005732403136789799
1684167998030836500,9.23283642578125,-0.008817547000944614,0.06179046258330345,0.010819180868566036
1684167998040855600,9.24285546875,0.008820835500955582,0.10534539073705673,0.021980222314596176
1684167998050873900,9.252873779296875,0.01305471919476986,0.12596437335014343,0.03373388946056366
1684167998060892700,9.262892578125,0.01188559178262949,0.1164795309305191,0.04800550267100334
1684167998070910700,9.27291064453125,0.01231192983686924,0.09442353993654251,0.0545775443315506
1684167998080929800,9.2829296875,0.012365991249680519,0.09023811668157578,0.047939080744981766
1684167998090947600,9.292947509765625,0.007885592058300972,0.10047358274459839,0.033396147191524506
1684167998100965600,9.302965576171875,0.000393853522837162,0.11313584446907043,0.019384989514946938
1684167998110984700,9.312984619140625,-0.0012243419187143445,0.11763374507427216,0.009226876311004162
1684167998121002800,9.323002685546875,0.005746482405811548,0.11106079816818237,0.01712980680167675
1684167998131021800,9.333021728515625,0.016507182270288467,0.09447231888771057,0.03629210218787193
1684167998141039600,9.34303955078125,0.027699382975697517,0.08881549537181854,0.07481712847948074
1684167998151058700,9.35305859375,0.041138481348752975,0.09616634994745255,0.11303115636110306
1684167998161076700,9.36307666015625,0.04934847354888916,0.08981417864561081,0.14530707895755768
1684167998171095600,9.373095458984375,0.06305722147226334,0.06546585261821747,0.16421222686767578
1684167998181113600,9.383113525390625,0.07591736316680908,0.027161873877048492,0.16468174755573273
1684167998191132700,9.393132568359375,0.07395945489406586,-0.015968916937708855,0.16183093190193176
1684167998201150700,9.403150634765625,0.06037147343158722,-0.08877041935920715,0.15606652200222015
1684167998211169800,9.413169677734375,0.04332638159394264,-0.20331794023513794,0.16384746134281158
1684167998221187600,9.4231875,0.037980884313583374,-0.3460215628147125,0.16279098391532898
1684167998231206700,9.43320654296875,0.04997308552265167,-0.49316835403442383,0.14167772233486176
1684167998241224700,9.443224609375,0.06398078054189682,-0.5659429430961609,0.10677406936883926
1684167998251243500,9.453243408203125,0.05027748644351959,-0.5044362545013428,0.06448524445295334
1684167998261261800,9.46326171875,0.010929816402494907,-0.296930730342865,0.02967267483472824
1684167998271280600,9.47328076171875,-0.033966463059186935,-0.008861188776791096,0.00011565210297703743
1684167998281298700,9.483298583984375,-0.052086345851421356,0.25971195101737976,-0.02871173620223999
1684167998291317800,9.49331787109375,-0.03346537798643112,0.4654814600944519,-0.04732261598110199
1684167998301335800,9.503335693359375,0.0047648316249251366,0.6191437244415283,-0.06323766708374023
1684167998311354600,9.513354736328125,0.045509032905101776,0.7211548089981079,-0.06951963156461716
1684167998321372700,9.52337255859375,0.08570998162031174,0.7523899674415588,-0.07211701571941376
1684167998331391700,9.533391845703125,0.12599995732307434,0.7041762471199036,-0.06161576136946678
1684167998341409800,9.543409912109375,0.1438327431678772,0.5916124582290649,-0.055129099637269974
1684167998351427800,9.553427734375,0.13477259874343872,0.4084102213382721,-0.0470510795712471
1684167998361446700,9.56344677734375,0.08389849960803986,0.20907741785049438,-0.05433163046836853
1684167998371464700,9.573464599609375,0.023302694782614708,0.00310386810451746,-0.06834070384502411
1684167998381483800,9.58348388671875,-0.029569042846560478,-0.1519070267677307,-0.07237539440393448
1684167998391501600,9.59350146484375,-0.05756116285920143,-0.21424934267997742,-0.06094958633184433
1684167998401520600,9.603520751953125,-0.05289850011467934,-0.22460025548934937,-0.029787935316562653
1684167998411538700,9.61353857421875,-0.016108816489577293,-0.23928141593933105,0.002669163513928652
1684167998421557800,9.623557861328125,0.029982244595885277,-0.24958838522434235,0.017773015424609184
1684167998431575800,9.633575927734375,0.04740782082080841,-0.19036714732646942,0.012734721414744854
1684167998441594600,9.6435947265625,0.022348275408148766,-0.048215869814157486,-0.023988937959074974
1684167998451612700,9.65361279296875,-0.044636864215135574,0.14368939399719238,-0.07019225507974625
1684167998461631700,9.6636318359375,-0.11101695150136948,0.32676175236701965,-0.104243703186512
1684167998471649500,9.6736494140625,-0.1339358240365982,0.47741326689720154,-0.10515226423740387
1684167998481668600,9.683668701171875,-0.09981460124254227,0.6233406662940979,-0.08533142507076263
1684167998491686700,9.693686767578125,-0.03420015424489975,0.7868213653564453,-0.06491512060165405
1684167998501705700,9.703705810546875,0.0327109694480896,0.9397336840629578,-0.06433402001857758
1684167998511723800,9.713723876953125,0.0897362232208252,1.0268027782440186,-0.09658866375684738
1684167998521742600,9.72374267578125,0.12843328714370728,1.0471951961517334,-0.13243427872657776
1684167998531760600,9.7337607421875,0.1570109874010086,1.071157693862915,-0.14232154190540314
1684167998541779700,9.74377978515625,0.18314191699028015,1.127578854560852,-0.11453785002231598
1684167998551797500,9.753797607421875,0.22077728807926178,1.0746351480484009,-0.039058294147253036
1684167998561815800,9.76381591796875,0.24799345433712006,0.8634397983551025,0.05303887650370598
1684167998571835000,9.7738349609375,0.2539638578891754,0.4508501887321472,0.12797017395496368
1684167998581852700,9.783852783203125,0.20666582882404327,-0.04836946725845337,0.1692022979259491
1684167998591871700,9.793871826171875,0.09771387279033661,-0.4615570902824402,0.14975516498088837
1684167998601889500,9.8038896484375,-0.03988819941878319,-0.751470685005188,0.09211689233779907
1684167998611908600,9.81390869140625,-0.15538911521434784,-0.9532926082611084,0.02802950330078602
1684167998621927000,9.823927001953125,-0.23683789372444153,-1.0507943630218506,-0.032453011721372604
1684167998631945700,9.83394580078125,-0.2690463960170746,-1.030916690826416,-0.0897466242313385
1684167998641964000,9.843964111328125,-0.25441765785217285,-0.8870155811309814,-0.13352607190608978
1684167998651983000,9.853983154296875,-0.20437206327915192,-0.615735650062561,-0.16842199862003326
1684167998662001000,9.8640009765625,-0.13745908439159393,-0.3121317923069,-0.1726258099079132
1684167998672020000,9.87402001953125,-0.07627876847982407,-0.09260935336351395,-0.13573460280895233
1684167998682037800,9.884037841796875,-0.03340773284435272,0.0027821511030197144,-0.06528332829475403
1684167998692056800,9.894056884765625,-0.00820346549153328,0.010367516428232193,-0.0009168728138320148
1684167998702075000,9.904074951171875,-0.006923017557710409,-0.02653590589761734,0.03808245435357094
1684167998712094000,9.914093994140625,-0.022805456072092056,-0.06987603008747101,0.03804215416312218
1684167998722112000,9.924112060546875,-0.039956215769052505,-0.10003712773323059,0.0028157250490039587
1684167998732131000,9.934131103515625,-0.048150159418582916,-0.10371237248182297,-0.040097177028656006
1684167998742148900,9.94414892578125,-0.03218317776918411,-0.09548880159854889,-0.05525801703333855
1684167998752168000,9.95416796875,-0.014507467858493328,-0.10029344260692596,-0.036997485905885696
1684167998762186000,9.96418603515625,0.006063587497919798,-0.13887199759483337,-0.0026762636844068766
1684167998772204800,9.974204833984375,0.015261148102581501,-0.21195268630981445,0.011743368580937386
1684167998782223000,9.98422314453125,-0.00120544305536896,-0.2806824743747711,-0.014074379578232765
1684167998792242200,9.9942421875,-0.04455549269914627,-0.29265210032463074,-0.06243970990180969
1684167998802260000,10.004260009765625,-0.10073460638523102,-0.26502448320388794,-0.094806969165802
1684167998812278000,10.014278076171875,-0.13431163132190704,-0.23868674039840698,-0.09567145258188248
1684167998822296800,10.024296875,-0.12861646711826324,-0.21068067848682404,-0.06553645431995392
1684167998832315000,10.03431494140625,-0.08311942964792252,-0.14994178712368011,-0.011099398136138916
1684167998842334000,10.044333984375,-0.014296690933406353,-0.03344794362783432,0.044998761266469955
1684167998852352000,10.05435205078125,0.05087374523282051,0.09781929850578308,0.07767198234796524
1684167998862371000,10.06437109375,0.08650923520326614,0.17335346341133118,0.06694130599498749
1684167998872388900,10.074388916015625,0.0774078369140625,0.17183949053287506,0.032101601362228394
1684167998882408000,10.084407958984375,0.02444128692150116,0.1274624466896057,-0.006237531080842018
1684167998892426000,10.094426025390625,-0.03309112787246704,0.10216949135065079,-0.024058429524302483
1684167998902444800,10.10444482421875,-0.05142699182033539,0.1231306940317154,-0.009226485155522823
1684167998912462800,10.114462890625,-0.022006619721651077,0.15337954461574554,0.02493409439921379
1684167998922482000,10.12448193359375,0.040822144597768784,0.13377681374549866,0.06326177716255188
1684167998932500000,10.1345,0.08825621008872986,0.062256332486867905,0.07389434427022934
1684167998942519000,10.14451904296875,0.08331470936536789,-0.004107515327632427,0.053340595215559006
1684167998952537000,10.154537109375,0.03521302714943886,-0.04359748214483261,0.009685738943517208
1684167998962556000,10.164555908203125,-0.023609276860952377,-0.0686090961098671,-0.04366243630647659
1684167998972574000,10.174573974609375,-0.051868077367544174,-0.1031779944896698,-0.08165083080530167
1684167998982593000,10.184593017578125,-0.05309366434812546,-0.1346253901720047,-0.08450387418270111
1684167998992610800,10.19461083984375,-0.033110037446022034,-0.14970003068447113,-0.05201469734311104
1684167999002630000,10.2046298828125,-0.014258050359785557,-0.14816978573799133,-0.00908906664699316
1684167999012648000,10.21464794921875,-0.00414807116612792,-0.13951830565929413,0.031159626320004463
1684167999022667000,10.2246669921875,-0.004817323759198189,-0.13188381493091583,0.03376526013016701
1684167999032685000,10.23468505859375,-0.011658107861876488,-0.13294276595115662,0.002380582969635725
1684167999042702800,10.244702880859375,-0.025485508143901825,-0.1271762251853943,-0.03688293322920799
1684167999052722000,10.254721923828125,-0.052884262055158615,-0.10834778845310211,-0.059263892471790314
1684167999062740000,10.264739990234375,-0.06996817141771317,-0.08448533713817596,-0.06608158349990845
1684167999072759000,10.274759033203125,-0.060795992612838745,-0.07326704263687134,-0.05682303383946419
1684167999082777000,10.284777099609375,-0.03158750757575035,-0.08043067902326584,-0.030460402369499207
1684167999092796000,10.2947958984375,0.002343278843909502,-0.08291222900152206,0.004466568119823933
1684167999102814000,10.30481396484375,0.02596631646156311,-0.0759885385632515,0.03896595537662506
1684167999112833000,10.3148330078125,0.03684458136558533,-0.05109440162777901,0.050391677767038345
1684167999122850800,10.324850830078125,0.028470538556575775,-0.01344929076731205,0.05283672735095024
1684167999132870000,10.334869873046875,0.019550925120711327,0.015195554122328758,0.04906141012907028
1684167999142888000,10.344887939453125,0.012416316196322441,0.01321682520210743,0.0569387748837471
1684167999152907000,10.354906982421875,0.019033491611480713,-0.00525085162371397,0.07035217434167862
1684167999162925000,10.364925048828125,0.033073410391807556,-0.022213589400053024,0.08005353808403015
1684167999172944000,10.37494384765625,0.04715908318758011,-0.024300148710608482,0.0773368775844574
1684167999182962000,10.3849619140625,0.0516747385263443,-0.015160180628299713,0.05963591858744621
1684167999192981000,10.39498095703125,0.04321771487593651,-0.021105270832777023,0.03425677493214607
1684167999202998800,10.404998779296875,0.02265518344938755,-0.042186055332422256,0.020556939765810966
1684167999213017900,10.415017822265625,-0.005157820880413055,-0.07193830609321594,0.019753484055399895
1684167999223036200,10.4250361328125,-0.028698567301034927,-0.10553860664367676,0.025003373622894287
1684167999233055000,10.435054931640625,-0.04737269505858421,-0.1362871527671814,0.026082981377840042
1684167999243073000,10.445072998046875,-0.06226855516433716,-0.16064229607582092,0.02787848562002182
1684167999253092000,10.455092041015625,-0.0653943344950676,-0.18566745519638062,0.029735669493675232
1684167999263110000,10.46510986328125,-0.051378123462200165,-0.21185405552387238,0.025318283587694168
1684167999273128000,10.4751279296875,-0.031110379844903946,-0.22749431431293488,0.0038291465025395155
1684167999283146800,10.485146728515625,-0.026825886219739914,-0.2173612415790558,-0.02604566141963005
1684167999293165000,10.4951650390625,-0.03126613050699234,-0.21359771490097046,-0.053722526878118515
1684167999303184100,10.50518408203125,-0.04870317876338959,-0.24373137950897217,-0.075237937271595
1684167999313202000,10.515201904296875,-0.07435975968837738,-0.2948648929595947,-0.0934470072388649
1684167999323221000,10.525220947265625,-0.10287023335695267,-0.3171702027320862,-0.10433933138847351
1684167999333238800,10.53523876953125,-0.1254277378320694,-0.26167765259742737,-0.1020577996969223
1684167999343257900,10.5452578125,-0.11668910831212997,-0.16256943345069885,-0.06862501055002213
1684167999353276000,10.55527587890625,-0.08336532115936279,-0.08323593437671661,-0.01929035782814026
1684167999363294700,10.565294677734375,-0.031918637454509735,-0.07142161577939987,0.04507078975439072
1684167999373313000,10.57531298828125,0.0031747014727443457,-0.09882748126983643,0.10016008466482162
1684167999383332000,10.58533203125,-0.0021660015918314457,-0.09033520519733429,0.13551008701324463
1684167999393350000,10.595349853515625,-0.048382509499788284,-0.015806378796696663,0.14423947036266327
1684167999403369000,10.605368896484375,-0.11249944567680359,0.10235089063644409,0.1301601380109787
1684167999413387000,10.615386962890625,-0.1655162125825882,0.234980970621109,0.1110011413693428
1684167999423405800,10.62540576171875,-0.18403664231300354,0.3647187352180481,0.11482197791337967
1684167999433424000,10.635423828125,-0.18168951570987701,0.47752857208251953,0.14406675100326538
1684167999443443000,10.64544287109375,-0.14938697218894958,0.5524792671203613,0.19538719952106476
1684167999453461000,10.6554609375,-0.08596844226121902,0.5352181792259216,0.2443409264087677
1684167999463480000,10.66547998046875,-0.00043729011667892337,0.4114091098308563,0.2761553227901459
1684167999473497900,10.675497802734375,0.08265206962823868,0.22845040261745453,0.27893131971359253
1684167999483517000,10.685516845703125,0.12203329801559448,0.04334951937198639,0.2324298918247223
1684167999493535000,10.695534912109375,0.10384304076433182,-0.11528664827346802,0.14165368676185608
1684167999503553800,10.7055537109375,0.03879320248961449,-0.211020365357399,0.03583512455224991
1684167999513572000,10.715572021484375,-0.03883455693721771,-0.19894978404045105,-0.06813828647136688
1684167999523591200,10.725591064453125,-0.08597490191459656,-0.06367451697587967,-0.1483183354139328
1684167999533609000,10.73560888671875,-0.08038432896137238,0.16064026951789856,-0.19971847534179688
1684167999543627000,10.745626953125,-0.02348456345498562,0.41258835792541504,-0.20696546137332916
1684167999553645800,10.755645751953125,0.07188515365123749,0.6438337564468384,-0.1690574735403061
1684167999563664000,10.765663818359375,0.174246683716774,0.8359478116035461,-0.11004849523305893
1684167999573683000,10.775682861328125,0.25249072909355164,0.9696804285049438,-0.025396080687642097
1684167999583701000,10.785700927734375,0.2868524491786957,0.9999434947967529,0.07699127495288849
1684167999593720000,10.795719970703125,0.29284796118736267,0.9103301167488098,0.14851564168930054
1684167999603737900,10.80573779296875,0.26807737350463867,0.7176581621170044,0.18287281692028046
1684167999613757000,10.8157568359375,0.21577505767345428,0.4580638110637665,0.15761271119117737
1684167999623774500,10.8257744140625,0.13161225616931915,0.18970052897930145,0.09238363802433014
1684167999633793500,10.83579345703125,0.02536805160343647,-0.017239827662706375,0.021255098283290863
1684167999643811600,10.8458115234375,-0.06163076311349869,-0.14533548057079315,-0.04271775856614113
1684167999653830700,10.85583056640625,-0.10355658084154129,-0.1967870444059372,-0.07378644496202469
1684167999663848700,10.8658486328125,-0.08945488184690475,-0.18764308094978333,-0.06833388656377792
1684167999673867800,10.87586767578125,-0.04408540204167366,-0.14673596620559692,-0.03963316231966019
1684167999683885600,10.885885498046875,-0.015463343821465969,-0.08657248318195343,-0.028487034142017365
1684167999693904600,10.895904541015625,-0.03129645437002182,-0.025842227041721344,-0.04790208116173744
1684167999703922400,10.90592236328125,-0.06710132211446762,-0.0002479180693626404,-0.09491033852100372
1684167999713941500,10.91594140625,-0.1037953644990921,-0.03268105164170265,-0.13744951784610748
1684167999723959800,10.925959716796875,-0.12735022604465485,-0.07796358317136765,-0.14580091834068298
1684167999733978600,10.935978515625,-0.12592680752277374,-0.11186744272708893,-0.11466521769762039
1684167999743996700,10.94599658203125,-0.09104258567094803,-0.14257928729057312,-0.06968123465776443
1684167999754015700,10.956015625,-0.03499501198530197,-0.17750050127506256,-0.04195201396942139
1684167999764033500,10.966033447265625,0.016749676316976547,-0.22475776076316833,-0.02771049179136753
1684167999774051600,10.976051513671875,0.043249424546957016,-0.2724115252494812,-0.014427550137043
1684167999784070700,10.986070556640625,0.03531373664736748,-0.2875233590602875,0.002076591830700636
1684167999794088700,10.996088623046875,0.005524365231394768,-0.2322121560573578,0.009833349846303463
1684167999804107800,11.006107666015625,-0.014915396459400654,-0.11869143694639206,0.005650055594742298
1684167999814125600,11.01612548828125,-0.013588445261120796,-0.0021436656825244427,0.004105635918676853
1684167999824144600,11.02614453125,0.010561631992459297,0.05387486517429352,0.026094025000929832
1684167999834162700,11.03616259765625,0.03331227973103523,0.06129806488752365,0.056174710392951965
1684167999844181500,11.046181396484375,0.030110623687505722,0.04999401420354843,0.0743076503276825
1684167999854199600,11.056199462890625,0.012183720245957375,0.03832416608929634,0.059063926339149475
1684167999864218600,11.066218505859375,-0.011111748404800892,0.03006969764828682,0.02520262822508812
1684167999874236700,11.076236572265625,-0.02965792454779148,0.022752588614821434,-0.012390942312777042
1684167999884255700,11.086255859375,-0.024163557216525078,0.009764350950717926,-0.03712398558855057
1684167999894273500,11.0962734375,-0.011341443285346031,-0.004210943356156349,-0.04313019663095474
1684167999904292600,11.106292724609375,0.008756634779274464,-0.01583670638501644,-0.028324350714683533
1684167999914310700,11.116310546875,0.024266714230179787,-0.011371176689863205,0.004961966536939144
1684167999924329500,11.12632958984375,0.03257843852043152,0.009371386840939522,0.037435486912727356
1684167999934347500,11.136347412109375,0.022683698683977127,0.016303634271025658,0.04227141663432121
1684167999944366600,11.14636669921875,0.0007725399336777627,-0.018925726413726807,0.01957622356712818
1684167999954384600,11.156384521484375,-0.024335185065865517,-0.09776146709918976,-0.008259225636720657
1684167999964403700,11.16640380859375,-0.044131528586149216,-0.18103398382663727,-0.03258507326245308
1684167999974421500,11.17642138671875,-0.049198660999536514,-0.26242926716804504,-0.05223797261714935
1684167999984440600,11.186440673828125,-0.057871244847774506,-0.3268719017505646,-0.0677330419421196
1684167999994458600,11.196458740234375,-0.06354866921901703,-0.37476664781570435,-0.08240227401256561
1684168000004476700,11.2064765625,-0.08204938471317291,-0.38592398166656494,-0.09206235408782959
1684168000014495500,11.21649560546875,-0.09843220561742783,-0.35206761956214905,-0.09409532696008682
1684168000024513800,11.226513671875,-0.1022045686841011,-0.2956096827983856,-0.0846610739827156
1684168000034532600,11.23653271484375,-0.08480826020240784,-0.23560546338558197,-0.06749627739191055
1684168000044550700,11.246550537109375,-0.05029396340250969,-0.17159558832645416,-0.043362174183130264
1684168000054569700,11.25656982421875,-0.010060922242701054,-0.10223925113677979,-0.008928723633289337
1684168000064587500,11.26658740234375,0.02813573181629181,-0.020751584321260452,0.03095184825360775
1684168000074606600,11.276606689453125,0.05200927332043648,0.057383760809898376,0.06218539550900459
1684168000084624600,11.286624755859375,0.05649803206324577,0.11906416714191437,0.06933598965406418
1684168000094643700,11.296643798828125,0.04558505117893219,0.15841466188430786,0.05393030866980553
1684168000104661800,11.306661865234375,0.02867770753800869,0.17261649668216705,0.029778899624943733
1684168000114680600,11.3166806640625,0.0151003273203969,0.17819932103157043,0.015859389677643776
1684168000124698600,11.32669873046875,0.016433240845799446,0.16760578751564026,0.017977934330701828
1684168000134717700,11.3367177734375,0.03004721738398075,0.15261204540729523,0.028114939108490944
1684168000144735500,11.346735595703125,0.04178030416369438,0.14497116208076477,0.03476591780781746
1684168000154754600,11.356754638671875,0.04484229534864426,0.14855749905109406,0.02481956221163273
1684168000164772600,11.366772705078125,0.036657072603702545,0.1290554404258728,0.007500492036342621
1684168000174791700,11.376791748046875,0.015421341173350811,0.09033617377281189,-0.008923397399485111
1684168000184809700,11.386809814453125,-0.005204308312386274,0.03980828821659088,-0.01948416233062744
1684168000194828500,11.39682861328125,-0.007076492998749018,-0.014620581641793251,-0.0264548659324646
1684168000204846600,11.4068466796875,-0.0012692040763795376,-0.05704021081328392,-0.027378717437386513
1684168000214865700,11.41686572265625,0.002260869601741433,-0.0727105438709259,-0.02359865792095661
1684168000224883500,11.426883544921875,-0.003228171728551388,-0.10031528025865555,-0.019403114914894104
1684168000234901800,11.43690185546875,-0.014579740352928638,-0.1295851618051529,-0.030192628502845764
1684168000244920800,11.4469208984375,-0.02868783473968506,-0.16348373889923096,-0.04344744607806206
1684168000254938600,11.456938720703125,-0.03296659141778946,-0.1696576327085495,-0.05056678503751755
1684168000264957700,11.466957763671875,-0.02586314268410206,-0.14286597073078156,-0.043758682906627655
1684168000274975500,11.4769755859375,-0.010012551210820675,-0.10716763138771057,-0.024203021079301834
1684168000284994600,11.48699462890625,0.0038108532316982746,-0.06927911192178726,-0.004446892533451319
1684168000295012600,11.4970126953125,0.013292960822582245,-0.024134989827871323,0.012740207836031914
1684168000305031400,11.507031494140625,0.01022499892860651,0.039680205285549164,0.029484033584594727
1684168000315049700,11.5170498046875,0.0013238383689895272,0.09630094468593597,0.040907520800828934
1684168000325068800,11.52706884765625,0.0024173324927687645,0.10429336130619049,0.03786326199769974
1684168000335086600,11.537086669921875,0.007244486827403307,0.07747439295053482,0.027149509638547897
1684168000345105700,11.547105712890625,0.005489197093993425,0.05539759248495102,0.0219920314848423
1684168000355123500,11.55712353515625,-0.0032248497009277344,0.053817927837371826,0.016724225133657455
1684168000365142500,11.567142578125,-0.008171672001481056,0.0822058916091919,0.02246946282684803
1684168000375160600,11.57716064453125,-0.006579571403563023,0.12480393797159195,0.030741669237613678
1684168000385179400,11.587179443359375,0.008174074813723564,0.17566125094890594,0.036973729729652405
1684168000395197700,11.59719775390625,0.021354934200644493,0.23326241970062256,0.03573710098862648
1684168000405216800,11.607216796875,0.023829011246562004,0.29130682349205017,0.02598913386464119
1684168000415234600,11.617234619140625,0.018102562054991722,0.32294848561286926,0.013977832160890102
1684168000425253600,11.627253662109375,0.004526831675320864,0.33057206869125366,0.00893726758658886
1684168000435271400,11.637271484375,-0.008394936099648476,0.3183530271053314,0.0016921557253226638
1684168000445290500,11.64729052734375,-0.022478265687823296,0.30971667170524597,-0.004405417945235968
1684168000455308800,11.657308837890625,-0.03930870443582535,0.3041110038757324,-0.020429551601409912
1684168000465326600,11.66732666015625,-0.06375625729560852,0.2517005503177643,-0.06307048350572586
1684168000475345700,11.677345703125,-0.08624333143234253,0.13362732529640198,-0.12467116117477417
1684168000485363700,11.68736376953125,-0.11262673139572144,-0.006829121615737677,-0.18928822875022888
1684168000495382500,11.697382568359375,-0.1268826276063919,-0.12926022708415985,-0.2425362765789032
1684168000505400600,11.707400634765625,-0.1275809109210968,-0.21182620525360107,-0.2584771513938904
1684168000515419600,11.717419677734375,-0.10845103859901428,-0.2545221149921417,-0.23433436453342438
1684168000525437700,11.727437744140625,-0.06334374845027924,-0.28817063570022583,-0.19298185408115387
1684168000535456800,11.737456787109375,-0.006038528401404619,-0.31525853276252747,-0.1436343640089035
1684168000545474600,11.747474609375,0.0318199060857296,-0.32395005226135254,-0.08445388078689575
1684168000555493600,11.75749365234375,0.04741707444190979,-0.3117731213569641,-0.022009890526533127
1684168000565511700,11.76751171875,0.03852611407637596,-0.2736966013908386,0.022839339450001717
1684168000575530500,11.777530517578125,0.017201080918312073,-0.21856696903705597,0.05190177634358406
1684168000585548500,11.787548583984375,-0.001621075440198183,-0.16587980091571808,0.06410998106002808
1684168000595567600,11.797567626953125,-0.007161878515034914,-0.11460935324430466,0.06145480275154114
1684168000605585700,11.807585693359375,0.0014694270212203264,-0.06718431413173676,0.045977577567100525
1684168000615604700,11.817604736328125,0.019208751618862152,-0.012703755870461464,0.032992731779813766
1684168000625623600,11.82762353515625,0.038180578500032425,0.045238107442855835,0.04590000584721565
1684168000635642600,11.837642578125,0.053195178508758545,0.09928727149963379,0.08679381012916565
1684168000645660400,11.847660400390625,0.06819570809602737,0.15010544657707214,0.1316494345664978
1684168000655679500,11.857679443359375,0.07918239384889603,0.19986015558242798,0.161002054810524
1684168000665697500,11.867697509765625,0.08552630990743637,0.24224649369716644,0.1599855273962021
1684168000675715300,11.87771533203125,0.0745883584022522,0.31320807337760925,0.13786570727825165
1684168000685734400,11.887734375,0.054243676364421844,0.4293067157268524,0.1174645647406578
1684168000695752400,11.89775244140625,0.03963276743888855,0.5263746976852417,0.11067356914281845
1684168000705771500,11.907771484375,0.036882784217596054,0.5312405228614807,0.13006751239299774
1684168000715789600,11.91778955078125,0.05249292775988579,0.45775294303894043,0.16023118793964386
1684168000725807400,11.927807373046875,0.07954026013612747,0.33899807929992676,0.16565124690532684
1684168000735825700,11.93782568359375,0.09807012975215912,0.20107713341712952,0.13356557488441467
1684168000745844500,11.947844482421875,0.0898745208978653,0.04504678398370743,0.06556283682584763
1684168000755862500,11.957862548828125,0.05736800283193588,-0.09119979292154312,-0.016335314139723778
1684168000765881600,11.967881591796875,0.007626011036336422,-0.14998267590999603,-0.08396788686513901
1684168000775899400,11.9778994140625,-0.03782813623547554,-0.14996124804019928,-0.11947393417358398
1684168000785918500,11.98791845703125,-0.051389485597610474,-0.15352588891983032,-0.1275624930858612
1684168000795936500,11.9979365234375,-0.04775262996554375,-0.15074771642684937,-0.1235639750957489
1684168000805955300,12.007955322265625,-0.03364719823002815,-0.09841900318861008,-0.12375252693891525
1684168000815973600,12.0179736328125,-0.011627946980297565,-0.024600662291049957,-0.1267729252576828
1684168000825992700,12.02799267578125,0.01287073828279972,0.039373792707920074,-0.1262003481388092
1684168000836010500,12.038010498046875,0.027504319325089455,0.06457072496414185,-0.120136559009552
1684168000846029600,12.048029541015625,0.02493889629840851,0.02397562749683857,-0.13021689653396606
1684168000856047400,12.05804736328125,-0.008230552077293396,-0.09251073002815247,-0.1325453221797943
1684168000866066400,12.06806640625,-0.06130681931972504,-0.2342931628227234,-0.12877269089221954
1684168000876084500,12.07808447265625,-0.11264997720718384,-0.34116655588150024,-0.11645624786615372
1684168000886103300,12.088103271484375,-0.13392357528209686,-0.3859787881374359,-0.10286054760217667
1684168000896121600,12.09812158203125,-0.11480461806058884,-0.40767377614974976,-0.08808141946792603
1684168000906140700,12.108140625,-0.08195079863071442,-0.40241163969039917,-0.0723879486322403
1684168000916158500,12.118158447265625,-0.045101284980773926,-0.3655552566051483,-0.04242204129695892
1684168000926176500,12.128176513671875,-0.02382768876850605,-0.26567819714546204,-0.011818326078355312
1684168000936195300,12.1381953125,-0.01494779996573925,-0.1302136778831482,0.006572646554559469
1684168000946213400,12.14821337890625,-0.017196306958794594,0.018106022849678993,0.010405467823147774
1684168000956232400,12.158232421875,-0.020428873598575592,0.13870865106582642,-0.003165643196552992
1684168000966250500,12.16825048828125,-0.008215085603296757,0.19846917688846588,-0.011901876889169216
1684168000976269600,12.17826953125,0.013792037032544613,0.22153548896312714,0.009720182977616787
1684168000986287600,12.18828759765625,0.04238959401845932,0.23000700771808624,0.04624437168240547
1684168000996306400,12.198306396484375,0.08025573939085007,0.21345146000385284,0.0698443129658699
1684168001006324500,12.208324462890625,0.1035541370511055,0.1705615073442459,0.08051692694425583
1684168001016343600,12.218343505859375,0.1058908998966217,0.10951542109251022,0.07268663495779037
